State,Accel_X,Accel_Y,Accel_Z,Gyro_X,Gyro_Y,Gyro_Z,Mag_X,Mag_Y,Mag_Z
S,S,-0.01,0.03,0.98,3.97,0.73,-0.49,-23.55,52.55,-400.00
S,S,-0.00,0.03,0.98,4.27,0.92,-0.55,-24.05,52.81,-400.00
S,S,-0.01,0.02,0.98,4.33,0.92,-0.67,-24.05,52.81,-400.00
S,S,-0.01,0.03,0.98,4.27,0.85,-0.55,-24.05,52.81,-400.00
S,S,-0.01,0.03,0.98,4.03,0.92,-0.43,-23.60,52.00,-400.00
S,S,-0.01,0.03,0.98,4.21,0.98,-0.49,-23.60,52.00,-400.00
S,S,-0.00,0.03,0.98,4.09,0.79,-0.49,-23.60,52.00,-400.00
S,S,-0.01,0.03,0.98,4.09,0.73,-0.61,-23.60,52.00,-400.00
S,S,-0.01,0.03,0.98,4.09,0.73,-0.55,-23.51,52.69,-400.00
S,S,-0.01,0.03,0.98,3.85,0.79,-0.49,-23.51,52.69,-400.00
S,S,-0.01,0.03,0.98,4.15,0.73,-0.55,-23.51,52.69,-400.00
S,S,-0.01,0.03,0.98,3.91,0.92,-0.49,-23.39,52.38,-400.00
S,S,-0.00,0.03,0.98,3.91,0.92,-0.55,-23.39,52.38,-400.00
S,S,-0.01,0.03,0.98,4.03,0.73,-0.61,-23.39,52.38,-400.00
S,S,-0.01,0.03,0.98,4.03,0.85,-0.55,-23.25,51.65,-400.00
S,S,-0.01,0.03,0.98,4.15,0.79,-0.43,-23.25,51.65,-400.00
S,S,-0.00,0.03,0.98,4.39,0.85,-0.67,-23.25,51.65,-400.00
S,S,-0.00,0.03,0.98,3.85,0.67,-0.49,-23.25,51.65,-400.00
S,S,-0.01,0.03,0.98,3.91,0.85,-0.67,-24.30,51.84,-400.00
S,S,-0.01,0.03,0.98,3.91,0.73,-0.49,-24.30,51.84,-400.00
S,S,-0.00,0.03,0.98,3.91,0.85,-0.61,-24.30,51.84,-400.00
S,S,-0.00,0.03,0.98,4.09,0.79,-0.61,-23.32,52.82,-400.00
S,S,-0.01,0.03,0.98,4.03,0.79,-0.55,-23.32,52.82,-400.00
S,S,-0.00,0.03,0.98,3.97,0.67,-0.55,-23.32,52.82,-400.00
S,S,-0.00,0.03,0.98,3.78,0.85,-0.67,-23.32,52.82,-400.00
S,S,-0.01,0.03,0.98,4.03,0.67,-0.61,-24.26,51.79,-400.00
S,S,-0.01,0.03,0.98,4.09,0.67,-0.67,-24.26,51.79,-400.00
S,S,-0.01,0.03,0.98,4.03,0.61,-0.73,-24.26,51.79,-400.00
S,S,-0.01,0.02,0.98,3.97,0.79,-0.67,-25.27,52.72,-400.00
S,S,-0.01,0.02,0.98,4.03,0.85,-0.49,-25.27,52.72,-400.00
S,S,-0.01,0.03,0.98,4.15,0.98,-0.67,-25.27,52.72,-400.00
S,S,-0.01,0.03,0.98,4.15,0.79,-0.61,-22.14,51.88,-400.00
S,S,-0.00,0.03,0.98,4.03,0.79,-0.67,-24.39,51.88,-400.00
S,S,-0.01,0.03,0.98,4.09,0.98,-0.61,-24.39,51.88,-400.00
S,S,-0.01,0.03,0.98,3.97,0.92,-0.49,-24.39,51.88,-400.00
S,S,-0.01,0.03,0.98,4.15,0.85,-0.55,-23.83,52.28,-400.00
S,S,-0.00,0.02,0.98,3.91,0.98,-0.43,-23.83,52.28,-400.00
S,S,-0.00,0.03,0.98,4.09,0.98,-0.67,-23.83,52.28,-400.00
S,S,-0.00,0.03,0.98,4.15,0.98,-0.61,-24.11,52.67,-400.00
S,S,-0.01,0.03,0.98,4.09,0.85,-0.61,-24.11,52.67,-400.00
S,S,-0.01,0.03,0.98,4.15,0.73,-0.55,-24.11,52.67,-400.00
S,S,-0.00,0.03,0.98,4.09,0.73,-0.61,-24.11,52.67,-400.00
S,S,-0.01,0.03,0.98,4.09,0.67,-0.61,-23.55,52.15,-400.00
S,S,-0.01,0.02,0.98,4.03,0.73,-0.67,-23.55,52.15,-400.00
S,S,-0.01,0.02,0.98,4.09,0.79,-0.61,-23.55,52.15,-400.00
S,S,-0.01,0.02,0.98,3.97,0.79,-0.67,-24.56,52.05,-400.00
S,S,-0.01,0.03,0.98,3.91,0.67,-0.61,-24.56,52.05,-400.00
S,S,-0.00,0.03,0.98,4.03,0.85,-0.61,-24.56,52.05,-400.00
S,S,-0.00,0.03,0.98,4.21,0.73,-0.73,-24.56,52.05,-400.00
S,S,-0.00,0.03,0.98,4.09,0.79,-0.61,-24.61,52.33,-400.00
S,S,-0.01,0.03,0.98,4.03,0.61,-0.55,-24.61,52.33,-400.00
S,S,-0.01,0.02,0.98,4.21,0.73,-0.61,-24.61,52.33,-400.00
S,S,-0.01,0.02,0.98,4.03,0.79,-0.67,-23.88,52.61,-400.00
S,S,-0.01,0.02,0.98,4.21,0.85,-0.55,-23.88,52.61,-400.00
S,S,-0.01,0.03,0.98,4.09,0.73,-0.55,-23.88,52.61,-400.00
S,S,-0.00,0.03,0.98,3.97,0.92,-0.55,-24.50,52.53,-400.00
S,S,-0.00,0.03,0.98,4.03,0.79,-0.55,-24.50,52.53,-400.00
S,S,-0.00,0.03,0.98,4.21,0.73,-0.79,-24.50,52.53,-400.00
S,S,-0.01,0.03,0.98,4.09,0.79,-0.43,-24.50,52.53,-400.00
S,S,-0.01,0.03,0.98,4.03,0.79,-0.61,-23.93,52.59,-400.00
S,S,-0.01,0.02,0.98,4.15,0.92,-0.49,-23.93,52.59,-400.00
S,S,-0.01,0.03,0.98,4.15,0.85,-0.49,-23.93,52.59,-400.00
S,S,-0.01,0.02,0.98,4.09,0.73,-0.55,-24.12,52.99,-400.00
S,S,-0.00,0.03,0.98,4.15,0.98,-0.49,-24.12,52.99,-400.00
S,S,-0.01,0.03,0.98,4.15,0.85,-0.55,-24.12,52.99,-400.00
S,S,-0.01,0.03,0.98,4.15,0.79,-0.67,-24.12,52.99,-400.00
S,S,-0.01,0.03,0.98,4.03,0.73,-0.55,-24.22,52.27,-400.00
S,S,-0.01,0.03,0.98,4.15,0.79,-0.61,-24.22,52.27,-400.00
S,S,-0.00,0.03,0.98,4.09,0.92,-0.55,-24.22,52.27,-400.00
S,S,-0.00,0.03,0.98,3.97,0.92,-0.61,-24.34,52.53,-400.00
S,S,-0.00,0.03,0.98,3.78,0.79,-0.61,-24.34,52.53,-400.00
S,S,-0.01,0.03,0.98,3.97,1.04,-0.61,-24.34,52.53,-400.00
S,S,-0.01,0.03,0.98,4.15,0.67,-0.55,-24.34,52.42,-400.00
S,S,-0.01,0.03,0.98,4.21,0.73,-0.61,-24.19,52.42,-400.00
S,S,-0.01,0.03,0.98,3.85,0.79,-0.49,-24.19,52.42,-400.00
S,S,-0.01,0.02,0.98,4.03,0.73,-0.55,-24.19,52.42,-400.00
S,S,-0.01,0.03,0.98,4.03,0.73,-0.73,-23.72,51.78,-400.00
S,S,-0.01,0.03,0.98,3.97,0.85,-0.55,-23.72,51.78,-400.00
S,S,-0.01,0.03,0.98,4.27,0.79,-0.61,-23.72,51.78,-400.00
S,S,-0.00,0.03,0.98,4.21,0.73,-0.61,-23.91,52.50,-400.00
S,S,-0.00,0.03,0.98,4.03,0.85,-0.67,-23.91,52.50,-400.00
S,S,-0.00,0.03,0.98,4.15,0.79,-0.55,-23.91,52.50,-400.00
S,S,-0.01,0.03,0.98,4.03,0.73,-0.49,-23.91,52.50,-400.00
S,S,-0.01,0.02,0.98,4.15,0.61,-0.67,-23.52,52.36,-400.00
S,S,-0.01,0.03,0.98,4.03,0.67,-0.67,-23.52,52.36,-400.00
S,S,-0.01,0.03,0.98,3.97,0.85,-0.67,-23.52,52.36,-400.00
S,S,-0.01,0.03,0.98,3.91,0.85,-0.61,-23.35,52.34,-400.00
S,S,-0.01,0.03,0.98,3.85,0.73,-0.49,-23.35,52.34,-400.00
S,S,-0.01,0.02,0.98,4.03,0.79,-0.49,-23.35,52.34,-400.00
S,S,-0.01,0.03,0.98,4.03,0.98,-0.61,-23.35,52.34,-400.00
S,S,-0.01,0.03,0.98,3.97,1.04,-0.55,-23.73,52.32,-400.00
S,S,-0.00,0.03,0.98,4.03,0.92,-0.67,-23.73,52.32,-400.00
S,S,-0.00,0.03,0.98,3.91,0.79,-0.61,-23.73,52.32,-400.00
S,S,-0.01,0.03,0.98,4.03,0.98,-0.61,-24.46,52.14,-400.00
S,S,-0.01,0.03,0.98,4.03,0.79,-0.43,-24.46,52.14,-400.00
S,S,-0.01,0.03,0.98,4.15,0.73,-0.49,-24.46,52.14,-400.00
S,S,-0.01,0.02,0.98,4.15,0.61,-0.61,-24.28,52.40,-400.00
S,S,-0.01,0.03,0.98,4.21,0.73,-0.55,-24.28,52.40,-400.00
S,S,-0.01,0.03,0.98,3.91,0.67,-0.61,-24.28,52.40,-400.00
S,S,-0.00,0.03,0.98,4.15,0.79,-0.49,-24.28,52.40,-400.00
S,S,-0.00,0.03,0.98,4.03,0.85,-0.55,-24.26,52.32,-400.00
S,S,-0.01,0.03,0.98,4.03,0.67,-0.55,-24.26,52.32,-400.00
S,S,-0.01,0.03,0.98,4.15,0.98,-0.55,-24.26,52.32,-400.00
S,S,-0.01,0.03,0.98,4.15,0.85,-0.61,-24.18,51.73,-400.00
S,S,-0.01,0.03,0.98,3.91,0.85,-0.49,-24.18,51.73,-400.00
S,S,-0.01,0.03,0.98,4.09,0.92,-0.67,-24.18,51.73,-400.00
S,S,-0.01,0.03,0.98,4.21,0.73,-0.55,-24.18,51.73,-400.00
S,S,-0.01,0.03,0.98,3.91,0.73,-0.61,-23.78,52.23,-400.00
S,S,-0.00,0.03,0.98,4.21,0.79,-0.55,-23.78,52.23,-400.00
S,S,-0.01,0.03,0.98,3.97,0.98,-0.61,-23.78,52.23,-400.00
S,S,-0.00,0.03,0.98,4.21,0.85,-0.61,-24.66,52.48,-400.00
S,S,-0.01,0.03,0.98,3.97,0.79,-0.73,-24.66,52.48,-400.00
S,S,-0.01,0.03,0.98,4.03,0.79,-0.49,-24.66,52.48,-400.00
S,S,-0.01,0.03,0.98,4.03,0.85,-0.67,-24.66,52.48,-400.00
S,S,-0.00,0.02,0.98,3.97,0.79,-0.61,-24.21,52.42,-400.00
S,S,-0.01,0.03,0.98,4.15,0.85,-0.67,-24.21,52.42,-400.00
S,S,-0.01,0.03,0.98,4.09,0.85,-0.55,-24.21,52.42,-400.00
S,S,-0.01,0.03,0.98,3.97,0.79,-0.49,-23.83,52.89,-400.00
S,S,-0.01,0.03,0.98,4.15,0.73,-0.61,-23.83,52.89,-400.00
S,S,-0.01,0.03,0.98,4.03,0.73,-0.55,-23.83,52.89,-400.00
S,S,-0.01,0.03,0.98,4.09,0.85,-0.67,-24.27,52.10,-400.00
S,S,-0.01,0.03,0.98,4.21,0.73,-0.61,-24.27,52.10,-400.00
S,S,-0.00,0.03,0.98,4.15,0.79,-0.61,-24.27,52.10,-400.00
S,S,-0.01,0.03,0.98,4.21,0.79,-0.67,-24.27,52.10,-400.00
S,S,-0.01,0.03,0.98,3.97,0.85,-0.55,-23.89,51.75,-400.00
S,S,-0.01,0.03,0.98,3.91,0.92,-0.49,-23.89,51.75,-400.00
S,S,-0.01,0.03,0.98,4.15,0.85,-0.55,-23.89,51.75,-400.00
S,S,-0.01,0.03,0.98,4.15,0.98,-0.49,-24.26,51.46,-400.00
S,S,-0.01,0.03,0.98,3.97,0.79,-0.67,-24.26,51.46,-400.00
S,S,-0.01,0.03,0.98,4.09,0.98,-0.61,-24.26,51.46,-400.00
S,S,-0.01,0.03,0.98,4.09,0.92,-0.55,-24.26,51.46,-400.00
S,S,-0.01,0.03,0.98,4.21,0.85,-0.61,-24.32,51.76,-400.00
S,S,-0.01,0.02,0.98,4.21,0.79,-0.49,-24.32,51.76,-400.00
S,S,-0.01,0.03,0.98,3.91,0.79,-0.49,-24.32,51.76,-400.00
S,S,-0.00,0.03,0.98,4.03,0.85,-0.55,-24.78,52.27,-400.00
S,S,-0.01,0.03,0.98,4.15,0.73,-0.61,-24.78,52.27,-400.00
S,S,-0.01,0.03,0.98,4.15,0.92,-0.55,-24.78,52.27,-400.00
S,S,-0.00,0.03,0.98,3.91,0.79,-0.61,-24.82,52.20,-400.00
S,S,-0.01,0.03,0.98,4.09,0.98,-0.61,-24.82,52.20,-400.00
S,S,-0.01,0.03,0.98,4.15,0.79,-0.43,-24.82,52.20,-400.00
S,S,-0.01,0.03,0.98,4.21,0.79,-0.49,-24.82,52.20,-400.00
S,S,-0.01,0.03,0.98,4.03,0.79,-0.49,-24.07,51.89,-400.00
S,S,-0.01,0.03,0.98,4.21,0.73,-0.61,-24.07,51.89,-400.00
S,S,-0.01,0.03,0.98,4.21,0.67,-0.73,-24.07,51.89,-400.00
S,S,-0.01,0.03,0.98,4.21,0.67,-0.55,-24.30,53.00,-400.00
S,S,-0.01,0.03,0.98,4.03,0.67,-0.49,-24.30,53.00,-400.00
S,S,-0.00,0.03,0.98,4.15,0.85,-0.61,-24.30,53.00,-400.00
S,S,-0.01,0.03,0.98,3.97,0.67,-0.67,-24.30,53.00,-400.00
S,S,-0.01,0.03,0.98,4.03,0.73,-0.55,-24.58,52.43,-400.00
S,S,-0.01,0.03,0.98,4.09,0.92,-0.43,-24.58,52.43,-400.00
S,S,-0.01,0.03,0.98,3.97,0.92,-0.67,-24.58,52.43,-400.00
S,S,-0.01,0.03,0.98,4.15,0.92,-0.49,-23.78,51.62,-400.00
S,S,-0.01,0.03,0.98,3.91,0.98,-0.67,-23.78,51.62,-400.00
S,S,-0.01,0.03,0.98,4.03,0.92,-0.67,-23.78,51.62,-400.00
S,S,-0.00,0.03,0.98,3.97,0.67,-0.73,-23.78,51.62,-400.00
S,S,-0.01,0.03,0.98,3.97,0.73,-0.61,-24.28,53.03,-400.00
S,S,-0.01,0.03,0.98,3.97,0.85,-0.67,-24.28,53.03,-400.00
S,S,-0.00,0.03,0.98,4.09,0.79,-0.67,-24.28,53.03,-400.00
S,S,-0.01,0.03,0.98,4.09,0.67,-0.55,-24.32,52.95,-400.00
S,S,-0.01,0.03,0.98,4.21,0.79,-0.67,-24.32,52.95,-400.00
S,S,-0.01,0.03,0.98,4.03,0.92,-0.73,-24.32,52.95,-400.00
S,S,-0.01,0.03,0.98,4.15,0.73,-0.67,-24.11,52.27,-400.00
S,S,-0.01,0.03,0.98,3.85,0.85,-0.61,-24.11,52.27,-400.00
S,S,-0.01,0.03,0.98,3.85,0.61,-0.67,-24.11,52.27,-400.00
S,S,-0.00,0.03,0.98,4.09,0.73,-0.61,-24.11,52.27,-400.00
S,S,-0.01,0.03,0.98,4.03,0.79,-0.55,-24.16,52.11,-400.00
S,S,-0.01,0.03,0.98,4.09,0.73,-0.61,-24.16,52.11,-400.00
S,S,-0.00,0.03,0.98,4.09,0.73,-0.55,-24.16,52.11,-400.00
S,S,-0.01,0.02,0.98,4.03,0.79,-0.67,-24.02,52.36,-400.00
S,S,-0.01,0.02,0.98,4.15,0.85,-0.67,-24.02,52.36,-400.00
S,S,-0.01,0.03,0.98,4.03,0.67,-0.55,-24.02,52.36,-400.00
S,S,-0.01,0.03,0.98,3.91,0.85,-0.61,-24.02,52.36,-400.00
S,S,-0.00,0.03,0.98,4.03,0.79,-0.67,-23.91,52.05,-400.00
S,S,-0.00,0.03,0.98,4.33,0.73,-0.67,-23.91,52.05,-400.00
S,S,-0.00,0.03,0.98,4.15,0.61,-0.61,-23.91,52.05,-400.00
S,S,-0.01,0.03,0.98,4.09,0.79,-0.49,-24.26,51.62,-400.00
S,S,-0.01,0.03,0.98,4.15,0.79,-0.55,-24.26,51.62,-400.00
S,S,-0.01,0.03,0.98,4.03,0.85,-0.61,-24.26,51.62,-400.00
S,S,-0.01,0.03,0.98,4.03,0.79,-0.55,-23.75,51.70,-400.00
S,S,-0.01,0.03,0.98,4.15,0.92,-0.55,-23.75,51.70,-400.00
S,S,-0.00,0.03,0.98,3.91,0.67,-0.55,-23.75,51.70,-400.00
S,S,-0.01,0.03,0.98,4.03,0.79,-0.67,-23.75,51.70,-400.00
S,S,-0.00,0.03,0.98,4.09,0.92,-0.67,-24.12,53.36,-400.00
S,S,-0.00,0.03,0.98,4.03,0.85,-0.49,-24.12,53.36,-400.00
S,S,-0.01,0.03,0.98,4.09,0.85,-0.55,-24.12,53.36,-400.00
S,S,-0.01,0.03,0.98,4.21,0.98,-0.55,-24.51,52.69,-400.00
S,S,-0.01,0.03,0.98,3.97,0.79,-0.61,-24.51,52.69,-400.00
S,S,-0.01,0.02,0.98,4.03,0.98,-0.43,-24.51,52.69,-400.00
S,S,-0.00,0.03,0.98,4.09,1.04,-0.55,-24.51,52.69,-400.00
S,S,-0.01,0.03,0.98,4.09,0.92,-0.61,-23.88,52.32,-400.00
S,S,-0.01,0.03,0.98,4.21,0.85,-0.55,-23.88,52.32,-400.00
S,S,-0.01,0.03,0.98,3.97,0.92,-0.49,-23.88,52.32,-400.00
S,S,-0.01,0.03,0.98,3.85,0.92,-0.67,-24.33,52.47,-400.00
S,S,-0.01,0.03,0.98,4.21,0.79,-0.61,-24.33,52.47,-400.00
S,S,-0.01,0.03,0.98,4.09,0.85,-0.43,-24.33,52.47,-400.00
S,S,-0.01,0.03,0.98,3.91,0.92,-0.49,-24.33,52.47,-400.00
S,S,-0.01,0.03,0.98,3.91,0.79,-0.43,-23.93,52.94,-400.00
S,S,-0.01,0.03,0.98,4.15,0.79,-0.55,-23.93,52.94,-400.00
S,S,-0.00,0.03,0.98,4.03,0.79,-0.55,-23.93,52.94,-400.00
S,S,-0.00,0.03,0.98,3.97,0.98,-0.49,-23.72,51.27,-400.00
S,S,-0.00,0.03,0.98,3.91,0.92,-0.55,-23.72,51.27,-400.00
S,S,-0.01,0.03,0.98,4.09,0.67,-0.49,-23.72,51.27,-400.00
S,S,-0.01,0.03,0.98,4.09,0.92,-0.55,-24.07,51.84,-400.00
S,S,-0.01,0.03,0.98,4.03,0.67,-0.61,-24.07,51.84,-400.00
S,S,-0.01,0.03,0.98,3.85,0.92,-0.49,-24.07,51.84,-400.00
S,S,-0.01,0.03,0.98,3.91,0.85,-0.55,-24.07,51.84,-400.00
S,S,-0.01,0.03,0.98,3.97,0.73,-0.55,-23.90,52.08,-400.00
S,S,-0.01,0.03,0.98,4.03,0.73,-0.55,-23.90,52.08,-400.00
S,S,-0.01,0.03,0.98,4.21,0.79,-0.55,-23.90,52.08,-400.00
S,S,-0.01,0.03,0.98,3.85,0.79,-0.61,-23.93,52.43,-400.00
S,S,-0.00,0.03,0.98,4.03,0.92,-0.61,-23.93,52.43,-400.00
S,S,-0.01,0.03,0.98,3.97,0.79,-0.67,-23.93,52.43,-400.00
S,S,-0.01,0.02,0.98,3.97,0.92,-0.61,-23.93,52.43,-400.00
S,S,-0.01,0.03,0.98,4.03,0.85,-0.61,-24.19,52.27,-400.00
S,S,-0.01,0.03,0.98,4.09,0.92,-0.55,-24.19,52.27,-400.00
S,S,-0.01,0.03,0.98,4.27,0.79,-0.49,-24.19,52.27,-400.00
S,S,-0.00,0.03,0.98,4.21,0.67,-0.61,-24.01,52.09,-400.00
S,S,-0.01,0.03,0.98,4.03,0.79,-0.55,-24.01,52.09,-400.00
S,S,-0.01,0.03,0.98,3.97,0.85,-0.67,-24.01,52.09,-400.00
S,S,-0.01,0.03,0.98,4.09,0.92,-0.43,-23.68,52.10,-400.00
S,S,-0.01,0.03,0.98,3.97,0.79,-0.61,-23.68,52.10,-400.00
S,S,-0.01,0.03,0.98,4.15,0.98,-0.37,-23.68,52.10,-400.00
S,S,-0.01,0.02,0.98,4.03,0.85,-0.61,-23.68,52.10,-400.00
S,S,-0.01,0.03,0.98,3.97,0.67,-0.61,-23.65,52.50,-400.00
S,S,-0.01,0.03,0.98,4.03,0.92,-0.55,-23.65,52.50,-400.00
S,S,-0.01,0.03,0.98,4.03,0.73,-0.73,-23.65,52.50,-400.00
S,S,-0.01,0.03,0.98,4.09,0.79,-0.67,-23.78,52.37,-400.00
S,S,-0.01,0.03,0.98,4.03,0.73,-0.55,-23.78,52.37,-400.00
S,S,-0.01,0.03,0.98,4.27,0.85,-0.61,-23.78,52.37,-400.00
S,S,-0.01,0.03,0.98,4.09,0.79,-0.49,-23.78,52.37,-400.00
S,S,-0.01,0.03,0.98,3.97,0.67,-0.55,-23.54,52.32,-400.00
S,S,-0.00,0.03,0.98,4.15,0.73,-0.61,-23.54,52.32,-400.00
S,S,-0.00,0.03,0.98,4.15,0.85,-0.55,-23.54,52.32,-400.00
S,S,-0.01,0.02,0.98,3.97,0.98,-0.61,-23.49,51.31,-400.00
S,S,-0.01,0.03,0.98,3.91,0.85,-0.43,-23.49,51.31,-400.00
S,S,-0.01,0.03,0.98,4.27,0.92,-0.49,-23.49,51.31,-400.00
S,S,-0.01,0.03,0.98,4.03,0.85,-0.79,-23.49,51.31,-400.00
S,S,-0.00,0.03,0.98,4.09,0.61,-0.49,-23.45,51.55,-400.00
S,S,-0.01,0.03,0.98,4.15,0.92,-0.49,-23.45,51.55,-400.00
S,S,-0.01,0.03,0.98,4.03,0.85,-0.61,-23.45,51.55,-400.00
S,S,-0.01,0.02,0.98,4.03,0.79,-0.67,-23.49,51.27,-400.00
S,S,-0.01,0.02,0.98,3.97,0.92,-0.67,-23.49,51.27,-400.00
S,S,-0.01,0.03,0.98,3.91,0.85,-0.61,-23.49,51.27,-400.00
S,S,-0.01,0.03,0.98,3.97,0.98,-0.61,-22.99,51.48,-400.00
S,S,-0.01,0.03,0.98,3.91,0.79,-0.49,-22.99,51.48,-400.00
S,S,-0.00,0.03,0.98,4.09,0.79,-0.49,-22.99,51.48,-400.00
S,S,-0.01,0.03,0.98,4.15,0.73,-0.49,-22.99,51.48,-400.00
S,S,-0.01,0.03,0.98,4.09,0.79,-0.43,-23.24,52.10,-400.00
S,S,-0.01,0.03,0.98,3.97,0.79,-0.55,-23.24,52.10,-400.00
S,S,-0.01,0.03,0.98,4.15,0.79,-0.55,-23.24,52.10,-400.00
S,S,-0.00,0.03,0.98,4.03,0.85,-0.55,-23.27,51.56,-400.00
S,S,-0.01,0.03,0.98,4.09,0.85,-0.61,-23.27,51.56,-400.00
S,S,-0.01,0.03,0.98,4.15,0.67,-0.55,-23.27,51.56,-400.00
S,S,-0.00,0.03,0.98,3.97,0.98,-0.61,-23.27,51.56,-400.00
S,S,-0.01,0.03,0.98,4.03,0.73,-0.49,-22.96,51.49,-400.00
S,S,-0.01,0.03,0.98,4.09,0.92,-0.55,-22.96,51.49,-400.00
S,S,-0.00,0.03,0.98,4.09,0.92,-0.55,-22.96,51.49,-400.00
S,S,-0.01,0.03,0.98,4.21,0.79,-0.61,-22.66,51.33,-400.00
S,S,-0.00,0.03,0.98,4.09,0.73,-0.43,-22.66,51.33,-400.00
S,S,-0.01,0.03,0.98,3.91,0.73,-0.55,-22.66,51.33,-400.00
S,S,-0.01,0.03,0.98,3.97,0.79,-0.61,-23.22,51.56,-400.00
S,S,-0.01,0.03,0.98,4.21,0.98,-0.49,-23.22,51.56,-400.00
S,S,-0.00,0.03,0.98,4.03,0.85,-0.55,-23.22,51.56,-400.00
S,S,-0.01,0.03,0.98,4.09,0.79,-0.55,-23.22,51.56,-400.00
S,S,-0.01,0.03,0.98,4.27,0.85,-0.55,-23.56,51.50,-400.00
S,S,-0.01,0.03,0.98,4.15,0.85,-0.61,-23.56,51.50,-400.00
S,S,-0.01,0.03,0.98,4.09,0.92,-0.49,-23.56,51.50,-400.00
S,S,-0.01,0.03,0.98,4.15,0.85,-0.49,-23.08,51.72,-400.00
S,S,-0.01,0.03,0.98,4.15,0.92,-0.49,-23.08,51.72,-400.00
S,S,-0.01,0.03,0.98,4.09,0.79,-0.43,-23.08,51.72,-400.00
S,S,-0.01,0.03,0.98,3.97,0.73,-0.55,-23.08,51.72,-400.00
S,S,-0.01,0.03,0.98,4.27,0.79,-0.55,-23.88,52.01,-400.00
S,S,-0.01,0.03,0.98,4.15,0.79,-0.61,-23.88,52.01,-400.00
S,S,-0.01,0.03,0.98,4.15,0.79,-0.61,-23.88,52.01,-400.00
S,S,-0.01,0.03,0.98,3.85,0.85,-0.49,-23.90,52.00,-400.00
S,S,-0.01,0.03,0.98,4.09,0.85,-0.49,-23.90,52.00,-400.00
S,S,-0.01,0.03,0.98,3.97,0.85,-0.61,-23.90,52.00,-400.00
S,S,-0.01,0.03,0.98,4.03,0.98,-0.55,-23.90,52.00,-400.00
S,S,-0.01,0.03,0.98,4.09,0.73,-0.49,-23.24,51.23,-400.00
S,S,-0.01,0.03,0.98,4.09,1.04,-0.67,-23.24,51.23,-400.00
S,S,-0.01,0.03,0.98,3.97,1.04,-0.61,-23.24,51.23,-400.00
S,S,-0.01,0.03,0.98,4.09,0.67,-0.43,-23.21,51.75,-400.00
S,S,-0.01,0.03,0.98,4.27,0.79,-0.67,-23.21,51.75,-400.00
S,S,-0.01,0.03,0.98,3.85,0.92,-0.61,-23.21,51.75,-400.00
S,S,-0.01,0.03,0.98,4.03,0.98,-0.73,-23.78,52.69,-400.00
S,S,-0.00,0.03,0.98,4.03,0.92,-0.67,-23.78,52.69,-400.00
S,S,-0.01,0.03,0.98,4.03,0.85,-0.55,-23.78,52.69,-400.00
S,S,-0.01,0.03,0.98,4.15,0.92,-0.49,-23.78,52.69,-400.00
S,S,-0.01,0.03,0.98,4.15,0.85,-0.55,-23.33,52.44,-400.00
S,S,-0.01,0.03,0.98,4.03,0.79,-0.49,-23.33,52.44,-400.00
S,S,-0.01,0.03,0.98,4.21,0.79,-0.67,-23.33,52.44,-400.00
S,S,-0.00,0.03,0.98,3.97,0.73,-0.49,-24.05,51.98,-400.00
S,S,-0.01,0.03,0.98,4.09,0.85,-0.61,-24.05,51.98,-400.00
S,S,-0.01,0.03,0.98,4.03,0.79,-0.43,-24.05,51.98,-400.00
S,S,-0.01,0.03,0.98,4.03,0.79,-0.49,-24.05,51.98,-400.00
S,S,-0.01,0.02,0.98,4.21,0.79,-0.55,-24.19,52.49,-400.00
S,S,-0.01,0.03,0.98,3.97,0.85,-0.61,-24.19,52.49,-400.00
S,S,-0.01,0.03,0.98,3.97,0.79,-0.61,-24.19,52.49,-400.00
S,S,-0.01,0.03,0.98,4.27,0.79,-0.55,-23.97,52.56,-400.00
S,S,-0.01,0.03,0.98,4.15,0.85,-0.49,-23.97,52.56,-400.00
S,S,-0.01,0.03,0.98,4.09,0.92,-0.73,-23.97,52.56,-400.00
S,S,-0.01,0.02,0.98,3.91,0.73,-0.61,-23.32,51.98,-400.00
S,S,-0.01,0.03,0.98,3.91,0.67,-0.61,-23.32,51.98,-400.00
S,S,-0.01,0.03,0.98,4.09,0.79,-0.61,-23.32,51.98,-400.00
S,S,-0.01,0.03,0.98,4.03,0.79,-0.49,-23.32,51.98,-400.00
S,S,-0.01,0.03,0.98,3.97,0.79,-0.55,-23.18,52.25,-400.00
S,S,-0.01,0.03,0.98,4.09,0.67,-0.55,-23.18,52.25,-400.00
S,S,-0.01,0.03,0.98,4.09,0.73,-0.55,-23.18,52.25,-400.00
S,S,-0.01,0.03,0.98,4.03,0.98,-0.61,-23.75,52.20,-400.00
S,S,-0.01,0.03,0.98,3.97,0.55,-0.55,-23.75,52.20,-400.00
S,S,-0.01,0.03,0.97,4.03,0.73,-0.73,-23.75,52.20,-400.00
S,S,-0.01,0.02,0.98,4.03,0.67,-0.67,-23.75,52.20,-400.00
S,S,-0.01,0.03,0.98,4.15,0.73,-0.67,-24.10,51.98,-400.00
S,S,-0.01,0.03,0.98,4.03,0.85,-0.61,-24.10,51.98,-400.00
S,S,-0.01,0.02,0.98,3.97,0.92,-0.55,-24.10,51.98,-400.00
S,S,-0.01,0.03,0.98,3.91,0.73,-0.49,-24.05,52.00,-400.00
S,S,-0.00,0.03,0.98,4.15,0.73,-0.55,-24.05,52.00,-400.00
S,S,-0.01,0.03,0.98,4.03,0.73,-0.55,-24.05,52.00,-400.00
S,S,-0.00,0.03,0.98,4.15,0.85,-0.49,-24.05,52.00,-400.00
S,S,-0.01,0.03,0.98,4.09,0.92,-0.43,-23.46,51.45,-400.00
S,S,-0.01,0.03,0.98,3.97,0.85,-0.55,-23.46,51.45,-400.00
S,S,-0.01,0.02,0.98,4.15,0.73,-0.49,-23.46,51.45,-400.00
S,S,-0.00,0.03,0.98,4.09,0.85,-0.37,-23.47,52.03,-400.00
S,S,-0.01,0.03,0.98,4.15,0.73,-0.55,-23.47,52.03,-400.00
S,S,-0.01,0.03,0.98,4.03,0.73,-0.49,-23.47,52.03,-400.00
S,S,-0.01,0.02,0.98,3.97,0.61,-0.67,-23.30,52.58,-400.00
S,S,-0.01,0.02,0.98,4.09,0.79,-0.61,-23.30,52.58,-400.00
S,S,-0.01,0.03,0.98,4.09,0.79,-0.43,-23.30,52.58,-400.00
S,S,-0.01,0.03,0.98,4.03,0.98,-0.49,-23.30,52.58,-400.00
S,S,-0.01,0.03,0.98,4.21,0.67,-0.73,-23.71,52.08,-400.00
S,S,-0.00,0.03,0.98,4.15,0.85,-0.61,-23.71,52.08,-400.00
S,S,-0.00,0.03,0.98,4.03,0.85,-0.67,-23.71,52.08,-400.00
S,S,-0.01,0.03,0.98,3.97,0.79,-0.61,-23.21,52.11,-400.00
S,S,-0.01,0.03,0.98,4.03,0.79,-0.73,-23.21,52.11,-400.00
S,S,-0.01,0.03,0.98,3.97,0.73,-0.49,-23.21,52.11,-400.00
S,S,-0.01,0.03,0.98,3.91,0.67,-0.55,-23.21,52.11,-400.00
S,S,-0.01,0.03,0.98,4.15,0.73,-0.49,-23.45,51.77,-400.00
S,S,-0.01,0.03,0.98,4.03,0.79,-0.61,-23.45,51.77,-400.00
S,S,-0.01,0.03,0.98,4.03,0.79,-0.49,-23.45,51.77,-400.00
S,S,-0.01,0.03,0.98,4.09,0.67,-0.55,-23.35,51.50,-400.00
S,S,-0.01,0.03,0.98,4.03,0.79,-0.55,-23.35,51.50,-400.00
S,S,-0.01,0.03,0.98,4.03,0.79,-0.55,-23.35,51.50,-400.00
S,S,-0.00,0.03,0.98,3.91,0.85,-0.61,-23.35,51.51,-400.00
S,S,-0.01,0.03,0.98,3.78,0.85,-0.43,-23.08,51.51,-400.00
S,S,-0.01,0.03,0.98,3.97,0.85,-0.37,-23.08,51.51,-400.00
S,S,-0.01,0.03,0.98,4.15,0.85,-0.55,-23.08,51.51,-400.00
S,S,-0.01,0.03,0.98,3.91,0.73,-0.55,-23.80,52.14,-400.00
S,S,-0.01,0.03,0.98,4.09,0.85,-0.55,-23.80,52.14,-400.00
S,S,-0.01,0.03,0.98,4.15,0.73,-0.49,-23.80,52.14,-400.00
S,S,-0.01,0.03,0.98,4.21,0.85,-0.43,-24.26,52.06,-400.00
S,S,-0.01,0.03,0.98,4.27,0.92,-0.49,-24.26,52.06,-400.00
S,S,-0.00,0.03,0.98,4.15,0.79,-0.61,-24.26,52.06,-400.00
S,S,-0.00,0.03,0.98,4.03,0.73,-0.61,-24.26,52.06,-400.00
S,S,-0.01,0.03,0.98,4.03,0.79,-0.61,-23.35,51.53,-400.00
S,S,-0.01,0.03,0.98,3.91,0.85,-0.61,-23.35,51.53,-400.00
S,S,-0.01,0.03,0.98,3.91,0.79,-0.61,-23.35,51.53,-400.00
S,S,-0.01,0.03,0.98,4.15,0.85,-0.49,-23.49,51.83,-400.00
S,S,-0.01,0.03,0.98,3.97,0.73,-0.55,-23.49,51.83,-400.00
S,S,-0.00,0.03,0.98,3.91,0.85,-0.67,-23.49,51.83,-400.00
S,S,-0.01,0.03,0.98,4.09,0.73,-0.55,-23.49,51.83,-400.00
S,S,-0.01,0.03,0.98,4.15,0.67,-0.43,-23.58,51.78,-400.00
S,S,-0.01,0.03,0.98,3.97,0.55,-0.55,-23.58,51.78,-400.00
S,S,-0.01,0.03,0.98,4.15,0.79,-0.61,-23.58,51.78,-400.00
S,S,-0.01,0.03,0.98,4.15,0.73,-0.49,-22.89,51.62,-400.00
S,S,-0.01,0.03,0.98,4.15,0.73,-0.55,-22.89,51.62,-400.00
S,S,-0.01,0.03,0.98,4.21,0.67,-0.43,-22.89,51.62,-400.00
S,S,-0.00,0.03,0.98,4.09,0.85,-0.55,-23.49,51.46,-400.00
S,S,-0.01,0.03,0.98,4.03,0.85,-0.61,-23.49,51.46,-400.00
S,S,-0.01,0.03,0.98,3.97,0.79,-0.49,-23.49,51.46,-400.00
S,S,-0.01,0.03,0.98,3.85,0.73,-0.49,-23.49,51.46,-400.00
S,S,-0.01,0.03,0.98,3.97,0.92,-0.55,-23.39,52.05,-400.00
S,S,-0.01,0.03,0.98,4.03,0.79,-0.49,-23.39,52.05,-400.00
S,S,-0.01,0.03,0.98,3.97,0.73,-0.43,-23.39,52.05,-400.00
S,S,-0.01,0.03,0.98,3.97,0.73,-0.55,-23.30,52.17,-400.00
S,S,-0.01,0.03,0.98,4.09,0.79,-0.55,-23.30,52.17,-400.00
S,S,-0.01,0.02,0.98,3.97,0.92,-0.49,-23.30,52.17,-400.00
S,S,-0.00,0.03,0.98,4.15,0.98,-0.61,-23.30,52.17,-400.00
S,S,-0.01,0.03,0.98,4.09,0.92,-0.49,-23.43,52.06,-400.00
S,S,-0.01,0.03,0.98,4.09,0.85,-0.37,-23.43,52.06,-400.00
S,S,-0.01,0.03,0.98,3.97,0.73,-0.61,-23.43,52.06,-400.00
S,S,-0.01,0.03,0.98,4.03,0.73,-0.61,-23.85,52.23,-400.00
S,S,-0.01,0.03,0.98,3.85,0.79,-0.37,-23.85,52.23,-400.00
S,S,-0.01,0.03,0.98,4.03,0.73,-0.61,-23.85,52.23,-400.00
S,S,-0.01,0.03,0.98,3.97,0.92,-0.49,-23.85,52.23,-400.00
S,S,-0.01,0.03,0.98,3.91,0.85,-0.49,-23.44,52.10,-400.00
S,S,-0.01,0.03,0.98,3.91,0.85,-0.55,-23.44,52.10,-400.00
S,S,-0.01,0.03,0.98,4.09,0.85,-0.43,-23.44,52.10,-400.00
S,S,-0.01,0.03,0.98,4.09,0.85,-0.49,-24.17,52.55,-400.00
S,S,-0.01,0.03,0.98,4.03,0.98,-0.49,-24.17,52.55,-400.00
S,S,-0.01,0.03,0.98,3.97,0.67,-0.55,-24.17,52.55,-400.00
S,S,-0.01,0.03,0.98,4.21,0.92,-0.61,-24.37,52.40,-400.00
S,S,-0.01,0.03,0.98,3.97,0.73,-0.49,-24.37,52.40,-400.00
S,S,-0.01,0.03,0.98,4.15,0.85,-0.61,-24.37,52.40,-400.00
S,S,-0.01,0.03,0.98,3.97,0.73,-0.55,-24.37,52.40,-400.00
S,S,-0.01,0.03,0.98,3.85,0.85,-0.43,-23.99,52.59,-400.00
S,S,-0.01,0.03,0.98,3.78,0.85,-0.55,-23.99,52.59,-400.00
S,S,-0.01,0.03,0.98,4.15,0.85,-0.67,-23.99,52.59,-400.00
S,S,-0.01,0.03,0.98,3.97,1.04,-0.61,-23.65,52.69,-400.00
S,S,-0.01,0.03,0.98,3.97,0.79,-0.67,-23.65,52.69,-400.00
S,S,-0.00,0.03,0.98,4.03,0.85,-0.55,-23.65,52.69,-400.00
S,S,-0.00,0.03,0.98,4.15,0.73,-0.49,-23.65,52.69,-400.00
S,S,-0.00,0.03,0.98,4.09,0.92,-0.55,-23.91,52.50,-400.00
S,S,-0.01,0.03,0.98,3.97,0.92,-0.49,-23.91,52.50,-400.00
S,S,-0.01,0.03,0.98,3.91,0.85,-0.61,-23.91,52.50,-400.00
S,S,-0.01,0.03,0.98,4.21,0.79,-0.55,-23.03,51.59,-400.00
S,S,-0.01,0.03,0.98,4.03,0.73,-0.55,-23.03,51.59,-400.00
S,S,-0.01,0.03,0.98,4.21,0.85,-0.67,-23.03,51.59,-400.00
S,S,-0.01,0.03,0.98,4.09,0.85,-0.49,-23.18,51.65,-400.00
S,S,-0.01,0.03,0.98,4.15,0.67,-0.61,-23.18,51.65,-400.00
S,S,-0.01,0.03,0.98,4.15,0.79,-0.61,-23.18,51.65,-400.00
S,S,-0.01,0.03,0.98,4.15,0.67,-0.55,-23.18,51.65,-400.00
S,S,-0.01,0.03,0.98,3.91,0.67,-0.61,-23.51,52.15,-400.00
S,S,-0.01,0.03,0.98,4.21,0.92,-0.55,-23.51,52.15,-400.00
S,S,-0.01,0.03,0.98,4.15,0.98,-0.55,-23.51,52.15,-400.00
S,S,-0.00,0.03,0.98,4.15,0.85,-0.61,-23.22,52.06,-400.00
S,S,-0.01,0.03,0.98,4.03,0.85,-0.49,-23.22,52.06,-400.00
S,S,-0.00,0.03,0.98,3.97,0.98,-0.49,-23.22,52.06,-400.00
S,S,-0.01,0.03,0.98,4.03,0.92,-0.61,-23.22,52.06,-400.00
S,S,-0.01,0.02,0.98,4.27,0.67,-0.61,-23.52,52.56,-400.00
S,S,-0.01,0.03,0.98,4.21,0.67,-0.61,-23.52,52.56,-400.00
S,S,-0.01,0.03,0.98,4.09,0.73,-0.61,-23.52,52.56,-400.00
S,S,-0.01,0.03,0.98,4.03,0.92,-0.61,-23.97,51.64,-400.00
S,S,-0.01,0.03,0.98,4.03,0.85,-0.55,-23.97,51.64,-400.00
S,S,-0.01,0.03,0.98,3.97,0.73,-0.55,-23.97,51.64,-400.00
S,S,-0.01,0.03,0.98,3.97,0.73,-0.55,-23.97,51.64,-400.00
S,S,-0.01,0.03,0.98,4.27,0.79,-0.43,-23.46,51.64,-400.00
S,S,-0.01,0.03,0.98,4.09,0.85,-0.61,-23.46,51.64,-400.00
S,S,-0.01,0.03,0.98,3.97,0.79,-0.55,-23.46,51.64,-400.00
S,S,-0.01,0.03,0.98,4.21,0.85,-0.49,-23.85,51.45,-400.00
S,S,-0.01,0.03,0.98,4.21,0.85,-0.67,-23.85,51.45,-400.00
S,S,-0.01,0.03,0.98,4.15,0.92,-0.67,-23.85,51.45,-400.00
S,S,-0.01,0.03,0.98,4.09,0.85,-0.49,-23.74,51.66,-400.00
S,S,-0.01,0.03,0.98,4.03,0.79,-0.55,-23.74,51.66,-400.00
S,S,-0.00,0.03,0.98,4.03,0.73,-0.43,-23.74,51.66,-400.00
S,S,-0.01,0.03,0.98,4.21,0.79,-0.43,-23.74,51.66,-400.00
S,S,-0.01,0.03,0.98,3.91,0.79,-0.55,-23.36,52.16,-400.00
S,S,-0.01,0.03,0.98,3.91,0.79,-0.43,-23.36,52.16,-400.00
S,S,-0.01,0.03,0.98,3.97,0.73,-0.49,-23.36,52.16,-400.00
S,S,-0.01,0.03,0.98,4.03,0.79,-0.61,-23.03,52.32,-400.00
S,S,-0.01,0.03,0.98,4.03,0.79,-0.55,-23.03,52.32,-400.00
S,S,-0.01,0.03,0.98,4.15,0.67,-0.49,-23.03,52.32,-400.00
S,S,-0.01,0.03,0.98,4.09,0.79,-0.55,-23.03,52.32,-400.00
S,S,-0.01,0.03,0.98,4.21,0.85,-0.61,-23.51,52.17,-400.00
S,S,-0.01,0.03,0.98,3.97,0.61,-0.43,-23.51,52.17,-400.00
S,S,-0.01,0.03,0.98,4.03,0.73,-0.55,-23.51,52.17,-400.00
S,S,-0.01,0.03,0.98,3.97,0.67,-0.67,-23.35,52.32,-400.00
S,S,-0.01,0.03,0.98,3.91,0.73,-0.49,-23.35,52.32,-400.00
S,S,-0.01,0.03,0.98,3.91,0.73,-0.49,-23.35,52.32,-400.00
S,S,-0.01,0.03,0.98,4.03,0.79,-0.55,-22.97,52.09,-400.00
S,S,-0.00,0.03,0.98,3.91,0.79,-0.49,-22.97,52.09,-400.00
S,S,-0.01,0.03,0.98,4.03,0.98,-0.61,-22.97,52.09,-400.00
S,S,-0.01,0.03,0.98,4.15,0.61,-0.61,-22.97,52.09,-400.00
S,S,-0.01,0.03,0.98,3.91,0.79,-0.55,-22.96,51.01,-400.00
S,S,-0.01,0.02,0.98,4.03,0.85,-0.49,-22.96,51.01,-400.00
S,S,-0.01,0.03,0.98,3.85,0.73,-0.73,-22.96,51.01,-400.00
S,S,-0.01,0.03,0.98,3.85,0.98,-0.61,-23.05,51.71,-400.00
S,S,-0.01,0.03,0.98,3.97,0.79,-0.61,-23.05,51.71,-400.00
S,S,-0.00,0.03,0.98,3.91,0.79,-0.55,-23.05,51.71,-400.00
S,S,-0.01,0.03,0.98,4.09,0.67,-0.61,-23.05,51.71,-400.00
S,S,-0.01,0.03,0.98,3.97,0.73,-0.49,-23.90,51.14,-400.00
S,S,-0.01,0.03,0.98,4.03,0.61,-0.49,-23.90,51.14,-400.00
S,S,-0.01,0.03,0.98,4.03,0.55,-0.43,-23.90,51.14,-400.00
S,S,-0.01,0.03,0.98,3.97,0.85,-0.55,-23.16,51.71,-400.00
S,S,-0.01,0.03,0.98,4.09,0.67,-0.49,-23.16,51.71,-400.00
S,S,-0.01,0.03,0.98,4.15,0.73,-0.61,-23.16,51.71,-400.00
S,S,-0.01,0.03,0.98,4.03,0.73,-0.61,-23.16,51.71,-400.00
S,S,-0.00,0.03,0.98,4.15,0.67,-0.55,-23.34,52.47,-400.00
S,S,-0.01,0.03,0.98,4.15,0.85,-0.55,-23.34,52.47,-400.00
S,S,-0.01,0.03,0.98,4.09,0.61,-0.49,-23.34,52.47,-400.00
S,S,-0.01,0.03,0.98,4.21,0.92,-0.49,-23.40,52.03,-400.00
S,S,-0.01,0.03,0.98,4.15,0.79,-0.55,-23.40,52.03,-400.00
S,S,-0.01,0.03,0.98,4.03,0.79,-0.43,-23.40,52.03,-400.00
S,S,-0.01,0.03,0.98,3.85,0.85,-0.61,-23.68,52.10,-400.00
S,S,-0.01,0.03,0.98,4.09,0.85,-0.73,-23.68,52.10,-400.00
S,S,-0.01,0.03,0.98,4.09,0.73,-0.55,-23.68,52.10,-400.00
S,S,-0.01,0.03,0.98,4.03,0.73,-0.67,-23.68,52.10,-400.00
S,S,-0.01,0.03,0.98,3.97,0.85,-0.55,-23.45,52.34,-400.00
S,S,-0.01,0.03,0.98,4.03,0.79,-0.43,-23.45,52.34,-400.00
S,S,-0.01,0.03,0.98,3.85,0.73,-0.67,-23.45,52.34,-400.00
S,S,-0.01,0.03,0.98,4.09,0.67,-0.49,-23.55,51.50,-400.00
S,S,-0.01,0.03,0.98,4.15,0.79,-0.61,-23.55,51.50,-400.00
S,S,-0.01,0.03,0.98,3.91,0.92,-0.67,-23.55,51.50,-400.00
S,S,-0.01,0.03,0.98,3.91,0.79,-0.49,-23.55,51.50,-400.00
S,S,-0.01,0.03,0.98,4.03,0.92,-0.55,-23.39,52.19,-400.00
S,S,-0.01,0.03,0.98,4.03,0.92,-0.37,-23.39,52.19,-400.00
S,S,-0.01,0.03,0.98,4.09,0.67,-0.55,-23.39,52.19,-400.00
S,S,-0.01,0.03,0.98,4.09,0.79,-0.67,-23.43,51.92,-400.00
S,S,-0.01,0.03,0.98,4.03,0.73,-0.61,-23.43,51.92,-400.00
S,S,-0.01,0.03,0.98,4.15,0.79,-0.49,-23.43,51.92,-400.00
S,S,-0.00,0.03,0.98,3.91,0.79,-0.61,-23.33,51.84,-400.00
S,S,-0.01,0.03,0.98,3.85,0.79,-0.55,-23.33,51.84,-400.00
S,S,-0.00,0.03,0.98,4.09,0.67,-0.61,-23.33,51.84,-400.00
S,S,-0.00,0.03,0.98,4.09,0.79,-0.61,-23.33,51.84,-400.00
S,S,-0.01,0.03,0.98,3.97,0.85,-0.67,-23.35,51.55,-400.00
S,S,-0.01,0.03,0.98,4.33,0.67,-0.73,-23.35,51.55,-400.00
S,S,-0.01,0.03,0.98,4.15,0.85,-0.55,-23.35,51.55,-400.00
S,S,-0.01,0.03,0.98,4.09,0.67,-0.61,-23.78,51.79,-400.00
S,S,-0.01,0.03,0.98,4.03,0.79,-0.49,-23.78,51.79,-400.00
S,S,-0.00,0.03,0.98,4.03,0.73,-0.67,-23.78,51.79,-400.00
S,S,-0.00,0.03,0.97,4.09,0.67,-0.55,-23.78,51.79,-400.00
S,S,-0.00,0.03,0.98,4.09,0.61,-0.67,-23.73,52.25,-400.00
S,S,-0.00,0.03,0.98,3.97,0.61,-0.67,-23.73,52.25,-400.00
S,S,-0.01,0.03,0.98,4.09,0.73,-0.49,-23.73,52.25,-400.00
S,S,-0.01,0.03,0.98,3.91,0.67,-0.55,-23.30,51.97,-400.00
S,S,-0.01,0.03,0.98,4.09,0.73,-0.55,-23.30,51.97,-400.00
S,S,-0.00,0.03,0.98,4.27,0.73,-0.67,-23.30,51.97,-400.00
S,S,-0.01,0.03,0.98,4.33,0.85,-0.55,-23.30,51.97,-400.00
S,S,-0.01,0.03,0.98,3.91,0.85,-0.79,-23.54,51.56,-400.00
S,S,-0.00,0.03,0.98,4.09,0.85,-0.73,-23.54,51.56,-400.00
S,S,-0.01,0.03,0.98,4.09,0.67,-0.67,-23.54,51.56,-400.00
S,S,-0.00,0.03,0.98,4.27,0.79,-0.73,-23.50,51.51,-400.00
S,S,-0.01,0.03,0.98,4.27,0.79,-0.67,-23.50,51.51,-400.00
S,S,-0.01,0.03,0.98,4.33,0.92,-0.73,-23.50,51.51,-400.00
S,S,-0.01,0.03,0.98,4.03,0.67,-0.61,-23.41,51.71,-400.00
S,S,-0.01,0.02,0.98,4.27,0.85,-0.67,-23.41,51.71,-400.00
S,S,-0.01,0.03,0.98,3.91,0.79,-0.61,-23.41,51.71,-400.00
S,S,-0.01,0.03,0.98,3.97,0.85,-0.61,-23.41,51.71,-400.00
S,S,-0.01,0.03,0.98,4.09,0.92,-0.67,-23.69,51.67,-400.00
S,S,-0.00,0.03,0.98,4.27,0.79,-0.61,-23.69,51.67,-400.00
S,S,-0.00,0.03,0.98,4.03,0.92,-0.67,-23.69,51.67,-400.00
S,S,-0.01,0.03,0.98,4.03,0.98,-0.67,-23.78,51.76,-400.00
S,S,-0.01,0.03,0.98,4.09,0.73,-0.55,-23.78,51.76,-400.00
S,S,-0.01,0.03,0.98,4.09,0.67,-0.61,-23.78,51.76,-400.00
S,S,-0.01,0.03,0.98,4.03,0.67,-0.61,-23.78,51.76,-400.00
S,S,-0.01,0.03,0.98,3.97,0.73,-0.55,-23.12,52.10,-400.00
S,S,-0.01,0.03,0.98,4.09,0.67,-0.49,-23.12,52.10,-400.00
S,S,-0.01,0.03,0.98,3.97,0.79,-0.55,-23.12,52.10,-400.00
S,S,-0.01,0.03,0.98,4.21,0.92,-0.61,-23.24,51.59,-400.00
S,S,-0.01,0.03,0.98,3.97,0.79,-0.49,-23.24,51.59,-400.00
S,S,-0.00,0.03,0.98,4.09,0.79,-0.55,-23.24,51.59,-400.00
S,S,-0.00,0.03,0.98,4.21,0.92,-0.55,-23.54,51.73,-400.00
S,S,-0.01,0.03,0.98,4.27,0.73,-0.55,-23.54,51.73,-400.00
S,S,-0.01,0.03,0.98,4.03,0.79,-0.55,-23.54,51.73,-400.00
S,S,-0.01,0.03,0.98,4.09,0.79,-0.61,-23.54,51.73,-400.00
S,S,-0.00,0.02,0.98,4.09,0.79,-0.61,-23.74,51.75,-400.00
S,S,-0.00,0.02,0.98,3.97,0.73,-0.61,-23.74,51.75,-400.00
S,S,-0.01,0.03,0.98,4.03,0.67,-0.61,-23.74,51.75,-400.00
S,S,-0.01,0.03,0.98,4.03,0.73,-0.43,-23.46,52.15,-400.00
S,S,-0.01,0.03,0.98,4.03,0.98,-0.49,-23.46,52.15,-400.00
S,S,-0.00,0.03,0.98,4.21,0.85,-0.49,-23.46,52.15,-400.00
S,S,-0.01,0.03,0.98,4.09,0.85,-0.61,-23.46,52.15,-400.00
S,S,-0.01,0.02,0.98,4.15,0.85,-0.61,-23.82,51.62,-400.00
S,S,-0.01,0.03,0.98,4.21,0.79,-0.61,-23.82,51.62,-400.00
S,S,-0.00,0.03,0.98,4.21,0.85,-0.55,-23.82,51.62,-400.00
S,S,-0.00,0.03,0.98,4.15,0.98,-0.55,-23.13,51.72,-400.00
S,S,-0.00,0.03,0.98,4.03,0.79,-0.67,-23.13,51.72,-400.00
S,S,-0.01,0.03,0.98,3.91,0.85,-0.61,-23.13,51.72,-400.00
S,S,-0.01,0.02,0.98,4.21,0.85,-0.67,-23.13,51.72,-400.00
S,S,-0.01,0.03,0.98,4.15,0.79,-0.55,-23.35,52.21,-400.00
S,S,-0.01,0.03,0.98,4.03,0.79,-0.55,-23.35,52.21,-400.00
S,S,-0.01,0.03,0.98,4.03,0.67,-0.49,-23.35,52.21,-400.00
S,S,-0.01,0.03,0.98,4.03,0.73,-0.55,-23.68,51.95,-400.00
S,S,-0.00,0.03,0.98,4.15,0.79,-0.55,-23.68,51.95,-400.00
S,S,-0.00,0.03,0.98,4.27,1.04,-0.61,-23.68,51.95,-400.00
S,S,-0.01,0.03,0.98,4.27,0.85,-0.55,-23.75,51.92,-400.00
S,S,-0.01,0.03,0.98,4.15,0.67,-0.67,-23.75,51.92,-400.00
S,S,-0.01,0.02,0.98,4.09,0.79,-0.61,-23.75,51.92,-400.00
S,S,-0.01,0.03,0.98,4.03,0.92,-0.43,-23.75,51.92,-400.00
S,S,-0.00,0.03,0.98,4.15,0.73,-0.55,-23.95,52.43,-400.00
S,S,-0.00,0.03,0.98,3.97,0.98,-0.67,-23.95,52.43,-400.00
S,S,-0.01,0.03,0.98,4.03,0.85,-0.43,-23.95,52.43,-400.00
S,S,-0.01,0.03,0.98,3.97,0.67,-0.61,-23.90,51.73,-400.00
S,S,-0.01,0.03,0.98,3.91,0.85,-0.55,-23.90,51.73,-400.00
S,S,-0.01,0.02,0.98,3.91,0.85,-0.43,-23.90,51.73,-400.00
S,S,-0.01,0.03,0.98,4.15,0.79,-0.55,-23.90,51.73,-400.00
S,S,-0.01,0.03,0.98,4.09,0.98,-0.61,-23.39,51.65,-400.00
S,S,-0.01,0.03,0.98,4.15,0.79,-0.67,-23.39,51.65,-400.00
S,S,-0.00,0.03,0.98,4.15,0.85,-0.67,-23.39,51.65,-400.00
S,S,-0.01,0.03,0.98,4.03,0.73,-0.61,-23.25,52.14,-400.00
S,S,-0.00,0.03,0.98,3.97,0.85,-0.67,-23.25,52.14,-400.00
S,S,-0.01,0.03,0.98,4.21,0.85,-0.67,-23.25,52.14,-400.00
S,S,-0.01,0.03,0.98,4.03,0.79,-0.55,-23.39,51.62,-400.00
S,S,-0.01,0.03,0.98,4.09,0.85,-0.55,-23.39,51.62,-400.00
S,S,-0.01,0.03,0.98,4.15,0.67,-0.61,-23.39,51.62,-400.00
S,S,-0.01,0.03,0.98,4.15,0.73,-0.67,-23.39,51.62,-400.00
S,S,-0.01,0.03,0.98,3.85,0.98,-0.79,-23.88,52.03,-400.00
S,S,-0.01,0.03,0.97,4.09,0.73,-0.61,-23.88,52.03,-400.00
S,S,-0.01,0.03,0.99,4.09,0.98,-0.49,-23.88,52.03,-400.00
S,S,-0.01,0.03,0.98,4.03,0.73,-0.55,-23.60,51.82,-400.00
S,S,-0.00,0.03,0.98,3.91,0.79,-0.55,-23.60,51.82,-400.00
S,S,-0.00,0.03,0.98,4.03,0.98,-0.67,-23.60,51.82,-400.00
S,S,-0.01,0.03,0.98,3.91,0.79,-0.61,-23.60,51.82,-400.00
S,S,-0.00,0.03,0.98,4.15,0.67,-0.55,-23.18,51.90,-400.00
S,S,-0.01,0.03,0.98,4.03,0.85,-0.49,-23.18,51.90,-400.00
S,S,-0.01,0.02,0.98,4.21,0.92,-0.55,-23.18,51.90,-400.00
S,S,-0.01,0.03,0.98,3.97,1.04,-0.61,-23.56,51.79,-400.00
S,S,-0.00,0.03,0.98,3.85,0.73,-0.61,-23.56,51.79,-400.00
S,S,-0.01,0.03,0.98,4.15,0.85,-0.67,-23.56,51.79,-400.00
S,S,-0.01,0.03,0.98,4.21,0.73,-0.55,-23.56,51.79,-400.00
S,S,-0.01,0.03,0.98,4.21,0.61,-0.55,-23.54,51.46,-400.00
S,S,-0.01,0.03,0.99,4.21,0.73,-0.73,-23.54,51.46,-400.00
S,S,-0.01,0.03,0.98,4.21,0.73,-0.49,-23.54,51.46,-400.00
S,S,-0.00,0.03,0.98,4.21,0.79,-0.61,-23.17,52.14,-400.00
S,S,-0.00,0.03,0.97,4.21,0.79,-0.49,-23.17,52.14,-400.00
S,S,-0.01,0.03,0.98,3.97,0.98,-0.55,-23.17,52.14,-400.00
S,S,-0.01,0.03,0.98,3.97,0.98,-0.49,-23.54,51.21,-400.00
S,S,-0.00,0.03,0.98,4.03,1.10,-0.49,-23.54,51.21,-400.00
S,S,-0.01,0.02,0.98,4.15,0.98,-0.61,-23.54,51.21,-400.00
S,S,-0.01,0.03,0.98,3.91,0.85,-0.55,-23.54,51.21,-400.00
S,S,-0.01,0.03,0.98,4.09,0.85,-0.67,-23.63,51.70,-400.00
S,S,-0.00,0.03,0.98,3.97,0.79,-0.67,-23.63,51.70,-400.00
S,S,-0.00,0.03,0.98,4.21,0.73,-0.61,-23.63,51.70,-400.00
S,S,-0.01,0.03,0.98,3.91,0.79,-0.73,-23.44,51.66,-400.00
S,S,-0.01,0.03,0.98,4.03,0.73,-0.37,-23.44,51.66,-400.00
S,S,-0.01,0.03,0.98,3.97,0.85,-0.55,-23.44,51.66,-400.00
S,S,-0.01,0.02,0.98,3.91,0.85,-0.49,-23.44,51.66,-400.00
S,S,-0.01,0.03,0.98,4.21,0.98,-0.55,-23.19,51.77,-400.00
S,S,-0.00,0.03,0.98,3.85,0.98,-0.43,-23.19,51.77,-400.00
S,S,-0.00,0.03,0.98,4.27,0.73,-0.73,-23.19,51.77,-400.00
S,S,-0.00,0.03,0.98,4.09,0.73,-0.43,-23.82,51.14,-400.00
S,S,-0.00,0.03,0.98,4.33,0.85,-0.67,-23.82,51.14,-400.00
S,S,-0.01,0.02,0.98,4.27,0.79,-0.61,-23.82,51.14,-400.00
S,S,-0.01,0.03,0.98,4.15,0.85,-0.67,-23.27,52.01,-400.00
S,S,-0.01,0.03,0.98,4.09,0.67,-0.61,-23.27,52.01,-400.00
S,S,-0.01,0.03,0.98,4.09,0.79,-0.49,-23.27,52.01,-400.00
S,S,-0.00,0.03,0.98,3.91,0.92,-0.43,-23.27,52.01,-400.00
S,S,-0.00,0.03,0.98,3.72,0.92,-0.61,-23.07,52.03,-400.00
S,S,-0.00,0.03,0.98,4.15,0.92,-0.49,-23.07,52.03,-400.00
S,S,-0.01,0.02,0.99,4.21,0.85,-0.49,-23.07,52.03,-400.00
S,S,-0.01,0.03,0.99,4.21,0.61,-0.61,-23.74,52.43,-400.00
S,S,-0.00,0.03,0.98,4.09,0.61,-0.49,-23.74,52.43,-400.00
S,S,-0.01,0.03,0.98,4.21,0.73,-0.73,-23.74,52.43,-400.00
S,S,-0.01,0.03,0.98,4.15,0.55,-0.73,-23.74,52.43,-400.00
S,S,-0.00,0.03,0.98,4.09,0.92,-0.55,-23.38,51.87,-400.00
S,S,-0.01,0.03,0.98,3.97,0.85,-0.55,-23.38,51.87,-400.00
S,S,-0.01,0.03,0.98,4.21,0.79,-0.61,-23.38,51.87,-400.00
S,S,-0.00,0.03,0.98,3.91,0.85,-0.67,-23.56,51.92,-400.00
S,S,-0.01,0.03,0.98,4.21,0.85,-0.67,-23.56,51.92,-400.00
S,S,-0.01,0.02,0.98,3.97,0.79,-0.49,-23.56,51.92,-400.00
S,S,-0.01,0.02,0.98,3.78,0.73,-0.55,-23.56,51.92,-400.00
S,S,-0.01,0.03,0.98,4.09,0.79,-0.61,-23.66,52.50,-400.00
S,S,-0.01,0.03,0.98,4.09,0.92,-0.49,-23.66,52.50,-400.00
S,S,-0.00,0.03,0.98,4.03,0.92,-0.43,-23.66,52.50,-400.00
S,S,-0.01,0.02,0.98,4.15,0.79,-0.67,-22.88,51.68,-400.00
S,S,-0.00,0.03,0.98,3.91,0.79,-0.55,-22.88,51.68,-400.00
S,S,-0.01,0.03,0.98,4.09,0.79,-0.55,-22.88,51.68,-400.00
S,S,-0.01,0.03,0.98,4.15,0.79,-0.67,-23.82,51.64,-400.00
S,S,-0.01,0.03,0.98,4.27,0.73,-0.67,-23.82,51.64,-400.00
S,S,-0.01,0.03,0.98,3.91,0.79,-0.55,-23.82,51.64,-400.00
S,S,-0.00,0.03,0.98,4.15,0.73,-0.49,-23.82,51.64,-400.00
S,S,-0.00,0.03,0.98,4.27,0.85,-0.49,-23.94,51.95,-400.00
S,S,-0.01,0.03,0.98,4.15,0.79,-0.55,-23.94,51.95,-400.00
S,S,-0.01,0.03,0.98,4.15,0.73,-0.49,-23.94,51.95,-400.00
S,S,-0.01,0.03,0.98,4.03,0.92,-0.49,-23.61,51.51,-400.00
S,S,-0.01,0.03,0.98,4.09,0.92,-0.55,-23.61,51.51,-400.00
S,S,-0.00,0.03,0.98,3.97,0.73,-0.61,-23.61,51.51,-400.00
S,S,-0.01,0.03,0.98,4.09,0.73,-0.67,-23.61,51.51,-400.00
S,S,-0.00,0.03,0.98,4.03,0.79,-0.55,-23.11,51.40,-400.00
S,S,-0.00,0.03,0.98,4.15,0.61,-0.37,-23.11,51.40,-400.00
S,S,-0.01,0.03,0.98,3.97,0.73,-0.43,-23.11,51.40,-400.00
S,S,-0.01,0.03,0.98,4.09,0.73,-0.61,-23.80,52.33,-400.00
S,S,-0.01,0.03,0.98,4.21,0.85,-0.49,-23.80,52.33,-400.00
S,S,-0.01,0.03,0.98,4.03,0.85,-0.37,-23.80,52.33,-400.00
S,S,-0.01,0.03,0.98,4.03,0.85,-0.55,-23.24,52.10,-400.00
S,S,-0.01,0.03,0.98,3.85,0.67,-0.49,-23.24,52.10,-400.00
S,S,-0.01,0.03,0.98,4.03,0.79,-0.55,-23.24,52.10,-400.00
S,S,-0.01,0.03,0.98,4.21,0.79,-0.73,-23.24,52.10,-400.00
S,S,-0.01,0.03,0.98,3.97,0.92,-0.67,-23.35,51.59,-400.00
S,S,-0.00,0.03,0.98,4.21,0.85,-0.49,-23.35,51.59,-400.00
S,S,-0.00,0.03,0.98,4.09,0.92,-0.43,-23.35,51.59,-400.00
S,S,-0.00,0.03,0.98,3.97,0.73,-0.61,-23.45,52.04,-400.00
S,S,-0.01,0.03,0.98,4.21,0.85,-0.49,-23.45,52.04,-400.00
S,S,-0.01,0.03,0.98,3.91,0.73,-0.55,-23.45,52.04,-400.00
S,S,-0.00,0.03,0.98,4.03,0.85,-0.49,-23.45,52.04,-400.00
S,S,-0.01,0.03,0.98,4.15,0.73,-0.43,-23.29,51.87,-400.00
S,S,-0.01,0.03,0.98,4.09,0.73,-0.55,-23.29,51.87,-400.00
S,S,-0.00,0.03,0.98,4.15,0.92,-0.61,-23.29,51.87,-400.00
S,S,-0.01,0.03,0.98,4.09,0.85,-0.55,-23.11,51.31,-400.00
S,S,-0.00,0.03,0.98,4.09,0.79,-0.61,-23.11,51.31,-400.00
S,S,-0.01,0.03,0.98,4.03,0.79,-0.55,-23.11,51.31,-400.00
S,S,-0.01,0.03,0.98,3.85,0.85,-0.67,-23.11,51.31,-400.00
S,S,-0.01,0.03,0.98,4.15,0.92,-0.61,-22.81,51.40,-400.00
S,S,-0.01,0.03,0.98,4.09,0.79,-0.61,-22.81,51.40,-400.00
S,S,-0.01,0.03,0.98,4.27,0.98,-0.61,-22.81,51.40,-400.00
S,S,-0.00,0.03,0.98,4.15,0.79,-0.55,-22.86,52.05,-400.00
S,S,-0.01,0.03,0.98,4.21,0.79,-0.49,-22.86,52.05,-400.00
S,S,-0.01,0.03,0.98,4.21,0.85,-0.67,-22.86,52.05,-400.00
S,S,-0.01,0.03,0.98,4.09,0.85,-0.67,-22.78,51.49,-400.00
S,S,-0.01,0.03,0.98,3.97,0.67,-0.55,-22.78,51.49,-400.00
S,S,-0.01,0.03,0.98,4.03,0.61,-0.55,-22.78,51.49,-400.00
S,S,-0.01,0.03,0.98,4.09,0.85,-0.67,-22.78,51.49,-400.00
S,S,-0.01,0.03,0.98,4.03,0.92,-0.67,-23.33,51.37,-400.00
S,S,-0.00,0.03,0.98,3.97,0.85,-0.61,-23.33,51.37,-400.00
S,S,-0.01,0.02,0.98,4.09,0.67,-0.55,-23.33,51.37,-400.00
S,S,-0.01,0.02,0.98,4.09,0.85,-0.55,-22.92,51.66,-400.00
S,S,-0.01,0.03,0.98,4.33,0.85,-0.67,-22.92,51.66,-400.00
S,S,-0.01,0.03,0.98,3.97,0.92,-0.61,-22.92,51.66,-400.00
S,S,-0.01,0.03,0.98,4.03,0.79,-0.55,-22.92,51.66,-400.00
S,S,-0.00,0.03,0.98,4.09,0.79,-0.67,-23.84,52.05,-400.00
S,S,-0.01,0.03,0.98,4.15,0.98,-0.61,-23.84,52.05,-400.00
S,S,-0.01,0.03,0.98,4.03,0.92,-0.55,-23.84,52.05,-400.00
S,S,-0.01,0.03,0.98,4.09,0.98,-0.55,-23.00,51.97,-400.00
S,S,-0.01,0.03,0.98,3.97,0.92,-0.61,-23.00,51.97,-400.00
S,S,-0.01,0.03,0.98,4.09,1.04,-0.61,-23.00,51.97,-400.00
S,S,-0.01,0.03,0.98,4.15,0.67,-0.67,-23.41,51.92,-400.00
S,S,-0.01,0.03,0.98,4.03,0.73,-0.61,-23.41,51.92,-400.00
S,S,-0.01,0.03,0.98,4.09,0.73,-0.61,-23.41,51.92,-400.00
S,S,-0.01,0.03,0.98,4.03,0.79,-0.55,-23.41,51.92,-400.00
S,S,-0.01,0.03,0.98,3.91,0.73,-0.49,-22.89,51.78,-400.00
S,S,-0.01,0.03,0.98,3.91,0.79,-0.55,-22.89,51.78,-400.00
S,S,-0.01,0.03,0.98,3.85,0.61,-0.73,-22.89,51.78,-400.00
S,S,-0.01,0.03,0.98,3.97,0.73,-0.55,-23.55,51.55,-400.00
S,S,-0.01,0.02,0.98,4.15,0.85,-0.49,-23.55,51.55,-400.00
S,S,-0.00,0.03,0.98,4.15,0.85,-0.55,-23.55,51.55,-400.00
S,S,-0.01,0.03,0.98,3.97,0.85,-0.55,-23.55,51.55,-400.00
S,S,-0.01,0.03,0.98,3.97,0.79,-0.61,-23.73,51.59,-400.00
S,S,-0.01,0.03,0.98,4.21,0.67,-0.67,-23.73,51.59,-400.00
S,S,-0.01,0.03,0.98,3.97,0.73,-0.61,-23.73,51.59,-400.00
S,S,-0.01,0.03,0.98,4.09,0.79,-0.49,-23.24,51.61,-400.00
S,S,-0.01,0.03,0.98,3.91,0.79,-0.55,-23.24,51.61,-400.00
S,S,-0.01,0.03,0.98,4.21,0.73,-0.55,-23.24,51.61,-400.00
S,S,-0.01,0.03,0.98,3.91,0.85,-0.43,-23.24,51.61,-400.00
S,S,-0.01,0.03,0.98,4.03,0.98,-0.61,-23.40,51.71,-400.00
S,S,-0.01,0.03,0.98,4.09,0.92,-0.43,-23.40,51.71,-400.00
S,S,-0.01,0.03,0.98,4.09,0.92,-0.43,-23.40,51.71,-400.00
S,S,-0.01,0.03,0.98,4.33,0.85,-0.61,-23.21,52.23,-400.00
S,S,-0.01,0.03,0.98,4.15,0.92,-0.55,-23.21,52.23,-400.00
S,S,-0.01,0.03,0.98,4.15,0.85,-0.43,-23.21,52.23,-400.00
S,S,-0.01,0.03,0.98,4.03,0.73,-0.49,-23.80,51.89,-400.00
S,S,-0.00,0.03,0.98,3.97,0.92,-0.55,-23.80,51.89,-400.00
S,S,-0.00,0.03,0.98,3.97,0.73,-0.67,-23.80,51.89,-400.00
S,S,-0.01,0.03,0.98,4.15,0.79,-0.55,-23.80,51.89,-400.00
S,S,-0.01,0.03,0.98,4.03,0.85,-0.49,-23.08,51.79,-400.00
S,S,-0.01,0.02,0.98,4.21,0.85,-0.55,-23.08,51.79,-400.00
S,S,-0.01,0.03,0.98,4.03,0.73,-0.67,-23.08,51.79,-400.00
S,S,-0.01,0.03,0.98,4.15,0.85,-0.43,-23.05,51.82,-400.00
S,S,-0.00,0.03,0.98,3.97,0.85,-0.55,-23.05,51.82,-400.00
S,S,-0.00,0.03,0.98,4.21,0.85,-0.61,-23.05,51.82,-400.00
S,S,-0.00,0.03,0.98,4.15,0.92,-0.55,-23.05,51.82,-400.00
S,S,-0.01,0.02,0.98,4.03,0.85,-0.43,-23.40,51.89,-400.00
S,S,-0.01,0.02,0.98,4.09,0.85,-0.55,-23.40,51.89,-400.00
S,S,-0.01,0.03,0.98,4.09,0.79,-0.55,-23.40,51.89,-400.00
S,S,-0.01,0.03,0.98,4.09,0.92,-0.55,-23.01,51.40,-400.00
S,S,-0.00,0.03,0.98,4.21,0.85,-0.55,-23.01,51.40,-400.00
S,S,-0.01,0.03,0.98,4.03,0.98,-0.61,-23.01,51.40,-400.00
S,S,-0.01,0.03,0.98,4.09,0.79,-0.55,-23.29,51.72,-400.00
S,S,-0.00,0.03,0.98,4.33,0.79,-0.73,-23.29,51.72,-400.00
S,S,-0.01,0.03,0.98,4.21,0.67,-0.43,-23.29,51.72,-400.00
S,S,-0.01,0.03,0.98,4.03,0.92,-0.43,-23.29,51.72,-400.00
S,S,-0.01,0.03,0.98,3.97,0.85,-0.49,-23.56,51.50,-400.00
S,S,-0.01,0.03,0.98,4.21,0.79,-0.67,-23.56,51.50,-400.00
S,S,-0.01,0.03,0.98,4.09,0.98,-0.61,-23.56,51.50,-400.00
S,S,-0.01,0.03,0.98,4.21,0.67,-0.61,-23.25,51.97,-400.00
S,S,-0.00,0.03,0.98,4.21,0.67,-0.61,-23.25,51.97,-400.00
S,S,-0.01,0.02,0.98,3.91,0.85,-0.55,-23.25,51.97,-400.00
S,S,-0.01,0.03,0.98,3.97,0.73,-0.61,-23.25,51.97,-400.00
S,S,-0.01,0.03,0.98,4.21,0.79,-0.37,-23.52,51.97,-400.00
S,S,-0.00,0.03,0.98,4.09,0.73,-0.61,-23.52,51.97,-400.00
S,S,-0.01,0.03,0.98,4.09,0.85,-0.61,-23.52,51.97,-400.00
S,S,-0.01,0.03,0.98,4.09,0.79,-0.43,-23.77,51.92,-400.00
S,S,-0.01,0.03,0.98,4.03,0.61,-0.43,-23.77,51.92,-400.00
S,S,-0.01,0.03,0.98,3.91,0.79,-0.49,-23.77,51.92,-400.00
S,S,-0.01,0.03,0.98,4.09,0.92,-0.67,-23.77,51.92,-400.00
S,S,-0.01,0.03,0.98,4.15,0.98,-0.49,-23.56,51.71,-400.00
S,S,-0.00,0.03,0.98,4.33,0.79,-0.55,-23.56,51.71,-400.00
S,S,-0.00,0.03,0.98,4.21,0.92,-0.49,-23.56,51.71,-400.00
S,S,-0.01,0.03,0.98,4.15,0.85,-0.55,-23.34,51.51,-400.00
S,S,-0.01,0.03,0.98,3.97,0.85,-0.55,-23.34,51.51,-400.00
S,S,-0.00,0.03,0.98,4.09,0.79,-0.49,-23.34,51.51,-400.00
S,S,-0.01,0.03,0.98,4.15,0.85,-0.55,-23.80,51.54,-400.00
S,S,-0.00,0.03,0.98,4.15,0.92,-0.61,-23.80,51.54,-400.00
S,S,-0.01,0.03,0.98,4.21,0.79,-0.49,-23.80,51.54,-400.00
S,S,-0.01,0.03,0.98,4.03,1.04,-0.49,-23.80,51.54,-400.00
S,S,-0.00,0.03,0.98,4.09,0.98,-0.43,-23.38,52.11,-400.00
S,S,-0.00,0.03,0.98,3.97,0.73,-0.49,-23.38,52.11,-400.00
S,S,-0.01,0.03,0.98,4.15,0.85,-0.43,-23.38,52.11,-400.00
S,S,-0.01,0.03,0.98,4.27,0.92,-0.43,-23.54,52.20,-400.00
S,S,-0.01,0.03,0.98,3.97,0.85,-0.43,-23.54,52.20,-400.00
S,S,-0.01,0.03,0.98,4.03,0.85,-0.61,-23.54,52.20,-400.00
S,S,-0.01,0.03,0.98,4.21,0.73,-0.37,-23.54,52.20,-400.00
S,S,-0.01,0.03,0.98,4.03,0.85,-0.61,-23.41,51.64,-400.00
S,S,-0.01,0.03,0.98,4.15,0.79,-0.55,-23.41,51.64,-400.00
S,S,-0.01,0.03,0.98,4.15,0.73,-0.43,-23.41,51.64,-400.00
S,S,-0.01,0.03,0.98,4.33,0.67,-0.31,-23.41,51.75,-400.00
S,S,-0.01,0.03,0.98,4.03,0.98,-0.55,-23.41,51.75,-400.00
S,S,-0.01,0.03,0.98,4.03,0.85,-0.37,-23.41,51.75,-400.00
S,S,-0.00,0.03,0.98,4.03,0.79,-0.55,-23.41,51.92,-400.00
S,S,-0.00,0.03,0.98,4.09,0.79,-0.55,-23.57,51.92,-400.00
S,S,-0.00,0.03,0.98,4.03,0.79,-0.49,-23.57,51.92,-400.00
S,S,-0.00,0.03,0.98,4.27,0.73,-0.55,-23.57,51.92,-400.00
S,S,-0.01,0.03,0.98,4.09,0.73,-0.55,-23.69,52.03,-400.00
S,S,-0.01,0.03,0.98,4.09,0.92,-0.67,-23.69,52.03,-400.00
S,S,-0.01,0.03,0.98,4.27,0.85,-0.55,-23.69,52.03,-400.00
S,S,-0.00,0.03,0.98,4.03,0.73,-0.49,-23.46,51.84,-400.00
S,S,-0.00,0.03,0.98,4.21,0.92,-0.55,-23.46,51.84,-400.00
S,S,-0.00,0.03,0.98,4.21,0.92,-0.67,-23.46,51.84,-400.00
S,S,-0.01,0.03,0.98,4.15,0.73,-0.61,-23.46,51.84,-400.00
S,S,-0.01,0.03,0.98,4.15,0.79,-0.73,-23.14,52.09,-400.00
S,S,-0.01,0.03,0.98,4.21,0.85,-0.61,-23.14,52.09,-400.00
S,S,-0.01,0.03,0.98,4.15,0.79,-0.43,-23.14,52.09,-400.00
S,S,-0.01,0.03,0.98,4.15,0.67,-0.61,-23.43,52.06,-400.00
S,S,-0.01,0.03,0.98,4.09,0.73,-0.55,-23.43,52.06,-400.00
S,S,-0.00,0.03,0.98,4.03,0.79,-0.61,-23.43,52.06,-400.00
S,S,-0.01,0.03,0.98,4.21,0.79,-0.67,-23.43,52.06,-400.00
S,S,-0.01,0.03,0.98,4.21,0.79,-0.73,-23.73,51.16,-400.00
S,S,-0.00,0.03,0.98,3.97,0.79,-0.55,-23.73,51.16,-400.00
S,S,-0.01,0.03,0.98,4.09,0.67,-0.67,-23.73,51.16,-400.00
S,S,-0.01,0.03,0.98,4.03,0.98,-0.55,-23.46,51.75,-400.00
S,S,-0.01,0.03,0.98,4.03,0.85,-0.61,-23.46,51.75,-400.00
S,S,-0.00,0.03,0.98,4.09,0.79,-0.61,-23.46,51.75,-400.00
S,S,-0.00,0.03,0.98,4.09,0.79,-0.55,-23.56,50.96,-400.00
S,S,-0.00,0.03,0.98,4.09,0.67,-0.73,-23.56,50.96,-400.00
S,S,-0.01,0.03,0.98,4.15,0.73,-0.67,-23.56,50.96,-400.00
S,S,-0.01,0.03,0.98,4.21,0.92,-0.61,-23.56,50.96,-400.00
S,S,-0.01,0.03,0.98,4.09,0.85,-0.49,-23.44,51.25,-400.00
S,S,-0.01,0.03,0.98,4.15,0.73,-0.55,-23.44,51.25,-400.00
S,S,-0.01,0.03,0.98,4.09,0.79,-0.49,-23.44,51.25,-400.00
S,S,-0.01,0.03,0.98,4.09,0.85,-0.55,-22.71,51.38,-400.00
S,S,-0.01,0.03,0.98,4.15,0.73,-0.55,-22.71,51.38,-400.00
S,S,-0.00,0.03,0.98,4.03,0.85,-0.67,-22.71,51.38,-400.00
S,S,-0.01,0.03,0.98,3.91,0.85,-0.43,-22.71,51.38,-400.00
S,S,-0.01,0.03,0.98,4.03,0.73,-0.49,-23.34,51.33,-400.00
S,S,-0.01,0.03,0.98,3.85,0.67,-0.61,-23.34,51.33,-400.00
S,S,-0.01,0.03,0.98,3.97,0.79,-0.61,-23.34,51.33,-400.00
S,S,-0.01,0.03,0.98,4.03,0.79,-0.73,-23.06,51.17,-400.00
S,S,-0.01,0.03,0.98,4.27,0.73,-0.43,-23.06,51.17,-400.00
S,S,-0.00,0.03,0.98,4.21,0.98,-0.67,-23.06,51.17,-400.00
S,S,-0.00,0.03,0.98,4.27,0.85,-0.61,-23.06,51.28,-400.00
S,S,-0.01,0.03,0.98,4.21,0.92,-0.55,-23.52,51.28,-400.00
S,S,-0.01,0.03,0.98,4.03,0.79,-0.55,-23.52,51.28,-400.00
S,S,-0.01,0.03,0.98,4.09,0.61,-0.55,-23.52,51.28,-400.00
S,S,-0.01,0.03,0.98,4.15,0.92,-0.61,-22.99,51.04,-400.00
S,S,-0.01,0.03,0.98,4.03,0.79,-0.61,-22.99,51.04,-400.00
S,S,-0.01,0.03,0.98,4.03,0.85,-0.55,-22.99,51.04,-400.00
S,S,-0.01,0.03,0.98,4.21,0.85,-0.61,-23.13,51.51,-400.00
S,S,-0.01,0.03,0.98,4.09,0.85,-0.55,-23.13,51.51,-400.00
S,S,-0.01,0.03,0.98,3.97,0.79,-0.61,-23.13,51.51,-400.00
S,S,-0.01,0.03,0.98,4.03,0.85,-0.61,-23.13,51.51,-400.00
S,S,-0.01,0.03,0.98,3.91,0.92,-0.61,-23.18,51.33,-400.00
S,S,-0.01,0.03,0.98,4.15,0.79,-0.61,-23.18,51.33,-400.00
S,S,-0.01,0.03,0.98,4.21,0.98,-0.55,-23.18,51.33,-400.00
S,S,-0.01,0.03,0.98,4.15,0.92,-0.67,-23.36,51.38,-400.00
S,S,-0.00,0.03,0.98,4.09,0.85,-0.55,-23.36,51.38,-400.00
S,S,-0.01,0.03,0.98,4.09,0.98,-0.61,-23.36,51.38,-400.00
S,S,-0.01,0.03,0.98,4.15,0.67,-0.49,-23.36,51.38,-400.00
S,S,-0.00,0.03,0.98,4.15,0.79,-0.61,-23.28,51.20,-400.00
S,S,-0.01,0.03,0.98,4.21,0.85,-0.61,-23.28,51.20,-400.00
S,S,-0.01,0.03,0.98,3.85,0.79,-0.55,-23.28,51.20,-400.00
S,S,-0.00,0.03,0.98,3.91,0.92,-0.43,-23.07,51.53,-400.00
S,S,-0.01,0.03,0.98,4.03,0.92,-0.49,-23.07,51.53,-400.00
S,S,-0.01,0.03,0.98,3.91,0.85,-0.61,-23.07,51.53,-400.00
S,S,-0.01,0.03,0.98,4.03,0.92,-0.61,-23.29,51.88,-400.00
S,S,-0.01,0.03,0.98,4.03,0.79,-0.61,-23.29,51.88,-400.00
S,S,-0.00,0.03,0.98,4.09,0.73,-0.55,-23.29,51.88,-400.00
S,S,-0.01,0.03,0.98,4.15,0.92,-0.67,-23.29,51.88,-400.00
S,S,-0.00,0.03,0.98,4.09,0.73,-0.55,-23.54,51.01,-400.00
S,S,-0.01,0.03,0.98,3.91,0.73,-0.49,-23.54,51.01,-400.00
S,S,-0.00,0.03,0.98,4.03,0.79,-0.49,-23.54,51.01,-400.00
S,S,-0.01,0.03,0.98,4.09,0.92,-0.61,-23.79,51.00,-400.00
S,S,-0.01,0.03,0.98,4.15,0.92,-0.49,-23.79,51.00,-400.00
S,S,-0.01,0.03,0.98,4.03,0.79,-0.55,-23.79,51.00,-400.00
S,S,-0.00,0.03,0.98,3.97,0.98,-0.61,-23.79,51.00,-400.00
S,S,-0.01,0.03,0.98,4.15,0.61,-0.55,-23.86,52.32,-400.00
S,S,-0.01,0.03,0.98,3.97,0.73,-0.55,-23.86,52.32,-400.00
S,S,-0.01,0.03,0.98,4.21,0.73,-0.61,-23.86,52.32,-400.00
S,S,-0.01,0.03,0.98,4.15,0.85,-0.55,-23.83,52.12,-400.00
S,S,-0.01,0.03,0.98,3.91,0.79,-0.67,-23.83,52.12,-400.00
S,S,-0.01,0.03,0.98,4.15,0.61,-0.49,-23.83,52.12,-400.00
S,S,-0.01,0.03,0.98,4.03,0.73,-0.55,-23.83,51.83,-400.00
S,S,-0.01,0.03,0.98,4.09,0.92,-0.67,-23.80,51.83,-400.00
S,S,-0.01,0.03,0.98,3.91,0.79,-0.55,-23.80,51.83,-400.00
S,S,-0.01,0.02,0.98,3.97,0.85,-0.55,-23.80,51.83,-400.00
S,S,-0.01,0.03,0.98,4.27,0.67,-0.49,-23.21,51.90,-400.00
S,S,-0.01,0.03,0.98,4.27,0.85,-0.67,-23.21,51.90,-400.00
S,S,-0.01,0.03,0.98,4.27,0.98,-0.73,-23.21,51.90,-400.00
S,S,-0.00,0.03,0.98,4.09,0.92,-0.61,-23.32,51.61,-400.00
S,S,-0.01,0.03,0.98,3.85,0.85,-0.55,-23.32,51.61,-400.00
S,S,-0.01,0.03,0.98,3.97,0.61,-0.49,-23.32,51.61,-400.00
S,S,-0.01,0.03,0.98,4.03,0.85,-0.61,-23.32,51.61,-400.00
S,S,-0.01,0.03,0.98,4.09,0.79,-0.55,-23.14,51.62,-400.00
S,S,-0.00,0.03,0.98,4.09,0.79,-0.55,-23.14,51.62,-400.00
S,S,-0.01,0.03,0.98,4.03,0.79,-0.31,-23.14,51.62,-400.00
S,S,-0.00,0.03,0.98,4.09,0.79,-0.43,-24.02,51.59,-400.00
S,S,-0.01,0.03,0.98,4.15,0.73,-0.55,-24.02,51.59,-400.00
S,S,-0.01,0.03,0.98,4.03,0.98,-0.55,-24.02,51.59,-400.00
S,S,-0.00,0.03,0.98,4.15,0.73,-0.55,-24.02,51.59,-400.00
S,S,-0.00,0.03,0.98,4.27,0.79,-0.61,-23.66,51.06,-400.00
S,S,-0.01,0.03,0.98,4.03,0.98,-0.61,-23.66,51.06,-400.00
S,S,-0.01,0.03,0.98,4.09,0.73,-0.43,-23.66,51.06,-400.00
S,S,-0.00,0.03,0.98,4.09,0.79,-0.49,-23.71,51.48,-400.00
S,S,-0.00,0.03,0.98,4.03,0.92,-0.55,-23.71,51.48,-400.00
S,S,-0.01,0.03,0.98,3.97,0.73,-0.37,-23.71,51.48,-400.00
S,S,-0.01,0.03,0.98,4.03,0.79,-0.67,-23.57,51.59,-400.00
S,S,-0.01,0.03,0.98,3.97,0.73,-0.67,-23.57,51.59,-400.00
S,S,-0.01,0.03,0.98,4.03,0.73,-0.61,-23.57,51.59,-400.00
S,S,-0.01,0.03,0.98,4.03,0.73,-0.49,-23.57,51.59,-400.00
S,S,-0.01,0.03,0.98,4.09,0.73,-0.55,-23.67,51.83,-400.00
S,S,-0.01,0.03,0.98,4.03,0.73,-0.55,-23.67,51.83,-400.00
S,S,-0.01,0.02,0.98,4.21,0.61,-0.61,-23.67,51.83,-400.00
S,S,-0.01,0.03,0.98,4.09,0.73,-0.55,-23.55,51.53,-400.00
S,S,-0.01,0.03,0.98,4.15,0.79,-0.61,-23.55,51.53,-400.00
S,S,-0.01,0.03,0.98,4.21,0.73,-0.55,-23.55,51.53,-400.00
S,S,-0.01,0.03,0.98,3.97,0.73,-0.55,-23.55,51.53,-400.00
S,S,-0.01,0.03,0.98,4.27,0.85,-0.73,-23.75,51.46,-400.00
S,S,-0.01,0.03,0.98,4.39,0.92,-0.55,-23.75,51.46,-400.00
S,S,-0.01,0.03,0.98,4.15,0.79,-0.67,-23.75,51.46,-400.00
S,S,-0.01,0.03,0.98,4.21,0.92,-0.49,-23.52,51.61,-400.00
S,S,-0.00,0.03,0.98,4.21,0.73,-0.55,-23.52,51.61,-400.00
S,S,-0.01,0.03,0.98,4.03,0.67,-0.61,-23.52,51.61,-400.00
S,S,-0.01,0.03,0.98,4.09,0.79,-0.43,-23.52,51.61,-400.00
S,S,-0.01,0.03,0.98,3.97,0.85,-0.49,-23.50,52.19,-400.00
S,S,-0.01,0.03,0.98,4.09,0.85,-0.55,-23.50,52.19,-400.00
S,S,-0.01,0.03,0.98,3.97,0.85,-0.49,-23.50,52.19,-400.00
S,S,-0.01,0.03,0.98,4.03,0.85,-0.55,-23.60,52.09,-400.00
S,S,-0.01,0.03,0.98,4.03,0.73,-0.61,-23.60,52.09,-400.00
S,S,-0.01,0.03,0.98,4.21,0.67,-0.67,-23.60,52.09,-400.00
S,S,-0.01,0.03,0.98,3.97,0.73,-0.55,-23.00,52.10,-400.00
S,S,-0.01,0.03,0.98,3.78,0.98,-0.67,-23.00,52.10,-400.00
S,S,-0.01,0.03,0.98,4.21,0.85,-0.67,-23.00,52.10,-400.00
S,S,-0.01,0.03,0.98,4.15,0.73,-0.49,-23.00,52.10,-400.00
S,S,-0.01,0.03,0.98,4.15,0.73,-0.61,-24.00,51.94,-400.00
S,S,-0.01,0.03,0.98,4.09,0.67,-0.61,-24.00,51.94,-400.00
S,S,-0.00,0.03,0.98,3.97,0.73,-0.67,-24.00,51.94,-400.00
S,S,-0.00,0.03,0.98,4.15,0.73,-0.55,-23.38,51.94,-400.00
S,S,-0.01,0.03,0.98,4.09,0.79,-0.55,-23.38,51.94,-400.00
S,State changed to: S
S,S,-0.00,0.03,0.98,4.03,0.79,-0.49,-23.38,51.94,-400.00
S,S,-0.01,0.03,0.98,4.09,0.79,-0.55,-23.38,51.94,-400.00
S,S,-0.01,0.03,0.98,4.09,0.73,-0.55,-23.66,51.65,-400.00
S,S,-0.00,0.03,0.98,4.15,0.79,-0.67,-23.66,51.65,-400.00
S,S,-0.00,0.03,0.98,4.09,0.79,-0.61,-23.66,51.65,-400.00
S,S,-0.01,0.03,0.98,3.97,0.67,-0.67,-23.75,51.83,-400.00
S,S,-0.01,0.03,0.98,4.09,0.79,-0.61,-23.75,51.83,-400.00
S,S,-0.01,0.03,0.98,4.03,0.67,-0.67,-23.75,51.83,-400.00
S,S,-0.01,0.03,0.98,4.09,0.61,-0.67,-23.89,51.45,-400.00
S,S,-0.00,0.03,0.98,4.03,0.92,-0.55,-23.89,51.45,-400.00
S,S,-0.01,0.03,0.98,4.09,0.67,-0.67,-23.89,51.45,-400.00
S,S,-0.00,0.03,0.98,4.03,0.73,-0.67,-23.89,51.45,-400.00
S,S,-0.01,0.03,0.98,4.15,0.73,-0.67,-23.54,51.83,-400.00
S,S,-0.01,0.03,0.98,4.03,0.73,-0.49,-23.54,51.83,-400.00
S,S,-0.01,0.03,0.98,3.97,0.79,-0.67,-23.54,51.83,-400.00
S,S,-0.00,0.02,0.98,3.85,0.79,-0.61,-23.21,52.03,-400.00
S,S,-0.01,0.03,0.98,4.09,0.61,-0.79,-23.21,52.03,-400.00
S,S,-0.00,0.03,0.98,4.33,0.67,-0.67,-23.21,52.03,-400.00
S,S,-0.01,0.03,0.98,4.21,0.85,-0.55,-23.21,52.03,-400.00
S,S,-0.01,0.03,0.98,3.97,0.73,-0.61,-23.19,52.03,-400.00
S,S,-0.01,0.03,0.98,4.15,0.85,-0.55,-23.19,52.03,-400.00
S,S,-0.01,0.03,0.98,4.09,0.73,-0.67,-23.19,52.03,-400.00
S,S,-0.01,0.03,0.98,3.91,0.79,-0.49,-23.30,51.95,-400.00
S,S,-0.01,0.02,0.98,3.85,0.85,-0.61,-23.30,51.95,-400.00
S,S,-0.00,0.02,0.98,3.91,0.85,-0.55,-23.30,51.95,-400.00
S,S,-0.01,0.03,0.98,4.03,0.79,-0.61,-23.30,51.95,-400.00
S,S,-0.01,0.03,0.98,3.85,0.92,-0.61,-23.75,52.25,-400.00
S,S,-0.01,0.03,0.98,4.15,0.85,-0.61,-23.75,52.25,-400.00
S,S,-0.01,0.03,0.98,4.09,0.73,-0.67,-23.75,52.25,-400.00
S,S,-0.01,0.02,0.98,4.15,0.85,-0.61,-23.91,51.84,-400.00
S,S,-0.00,0.02,0.98,4.09,0.67,-0.43,-23.91,51.84,-400.00
S,S,-0.01,0.02,0.98,3.97,0.79,-0.67,-23.91,51.84,-400.00
S,S,-0.01,0.03,0.98,4.03,0.67,-0.55,-23.49,51.73,-400.00
S,S,-0.01,0.03,0.98,3.97,0.85,-0.43,-23.49,51.73,-400.00
S,S,-0.01,0.03,0.98,4.09,0.73,-0.61,-23.49,51.73,-400.00
S,S,-0.00,0.03,0.98,4.09,0.67,-0.55,-23.49,51.73,-400.00
S,S,-0.00,0.02,0.98,4.09,0.85,-0.67,-22.99,52.11,-400.00
S,S,-0.01,0.02,0.98,4.15,0.79,-0.61,-22.99,52.11,-400.00
S,S,-0.01,0.02,0.97,4.03,0.79,-0.49,-22.99,52.11,-400.00
S,S,-0.01,0.03,0.98,3.97,1.04,-0.55,-23.61,51.57,-400.00
S,S,-0.01,0.03,0.98,3.97,0.92,-0.67,-23.61,51.57,-400.00
S,S,-0.00,0.03,0.98,3.91,0.92,-0.49,-23.61,51.57,-400.00
S,S,-0.00,0.03,0.98,3.78,0.92,-0.61,-23.61,51.57,-400.00
S,S,-0.00,0.03,0.98,4.09,0.79,-0.67,-23.57,51.17,-400.00
S,S,-0.00,0.03,0.98,4.09,0.85,-0.61,-23.57,51.17,-400.00
S,S,-0.01,0.03,0.98,4.09,0.98,-0.67,-23.57,51.17,-400.00
S,S,-0.01,0.03,0.98,3.97,0.79,-0.55,-22.50,51.12,-400.00
S,S,-0.00,0.03,0.98,4.33,0.67,-0.49,-22.50,51.12,-400.00
S,S,-0.00,0.03,0.98,4.03,0.85,-0.61,-22.50,51.12,-400.00
S,S,-0.01,0.02,0.98,4.03,0.73,-0.55,-22.90,51.48,-400.00
S,S,-0.00,0.03,0.98,3.97,0.79,-0.61,-22.90,51.48,-400.00
S,S,-0.00,0.03,0.98,3.85,0.67,-0.61,-22.90,51.48,-400.00
S,S,-0.00,0.03,0.98,4.03,0.67,-0.61,-22.90,51.48,-400.00
S,S,-0.01,0.02,0.98,4.27,0.79,-0.55,-22.55,51.99,-400.00
S,S,-0.00,0.03,0.98,3.97,0.73,-0.55,-22.55,51.99,-400.00
S,S,-0.00,0.03,0.98,4.15,0.85,-0.61,-22.55,51.99,-400.00
S,S,-0.00,0.03,0.98,4.09,0.85,-0.61,-23.21,51.38,-400.00
S,S,-0.01,0.03,0.98,4.15,0.61,-0.73,-23.21,51.38,-400.00
S,S,-0.01,0.03,0.98,3.91,0.85,-0.61,-23.21,51.38,-400.00
S,S,-0.00,0.03,0.98,3.85,0.85,-0.49,-23.21,51.38,-400.00
S,S,-0.00,0.03,0.98,4.15,0.79,-0.43,-23.61,51.29,-400.00
S,S,-0.01,0.03,0.98,4.03,0.85,-0.43,-23.61,51.29,-400.00
S,S,-0.00,0.03,0.98,4.09,0.85,-0.55,-23.61,51.29,-400.00
S,S,-0.00,0.03,0.98,4.09,0.92,-0.61,-23.01,51.68,-400.00
S,S,-0.00,0.03,0.98,3.97,0.79,-0.67,-23.01,51.68,-400.00
S,S,-0.01,0.03,0.98,4.09,0.92,-0.61,-23.01,51.68,-400.00
S,S,-0.01,0.03,0.98,3.97,0.92,-0.73,-23.01,51.68,-400.00
S,S,-0.00,0.03,0.98,4.15,0.73,-0.55,-23.49,51.53,-400.00
S,S,-0.00,0.03,0.98,4.03,0.79,-0.55,-23.49,51.53,-400.00
S,S,-0.00,0.03,0.98,4.09,0.79,-0.55,-23.49,51.53,-400.00
S,S,-0.01,0.03,0.98,3.78,0.85,-0.49,-23.01,51.20,-400.00
S,S,-0.00,0.03,0.98,4.15,0.85,-0.67,-23.01,51.20,-400.00
S,S,-0.00,0.03,0.98,4.15,0.79,-0.43,-23.01,51.20,-400.00
S,S,0.01,0.04,0.98,4.27,0.98,-0.61,-23.84,51.77,-400.00
S,S,-0.00,0.04,0.96,4.39,0.67,-0.49,-23.84,51.77,-400.00
S,S,-0.01,0.01,0.99,4.27,1.10,-0.61,-23.84,51.77,-400.00
S,S,-0.01,0.02,0.98,4.39,0.67,-0.92,-23.84,51.77,-400.00
S,S,-0.00,0.03,0.98,3.91,1.16,-0.49,-22.99,51.76,-400.00
S,S,-0.00,0.02,0.97,4.21,0.73,-0.18,-22.99,51.76,-400.00
S,S,-0.01,0.03,0.98,4.03,0.79,-0.55,-22.99,51.76,-400.00
S,S,-0.00,0.04,0.97,4.21,0.79,-0.79,-23.46,51.37,-400.00
S,S,0.00,0.04,0.97,4.09,0.73,-0.67,-23.46,51.37,-400.00
S,S,-0.01,0.02,0.98,4.21,0.85,-0.49,-23.46,51.37,-400.00
S,S,-0.01,0.02,0.98,4.46,0.67,-0.61,-23.46,51.37,-400.00
T,S,-0.01,0.03,0.98,4.21,0.67,-0.73,-23.57,51.34,-400.00
T,S,-0.01,0.03,0.98,4.09,0.73,-0.55,-23.57,51.34,-400.00
T,S,-0.01,0.02,0.98,4.09,0.73,-0.55,-23.57,51.34,-400.00
T,S,-0.01,0.02,0.98,4.15,0.67,-0.49,-23.07,51.57,-400.00
T,S,-0.01,0.02,0.98,4.09,0.92,-0.61,-23.07,51.57,-400.00
T,S,-0.00,0.03,0.98,3.97,0.85,-0.61,-23.07,51.57,-400.00
T,S,-0.00,0.03,0.98,4.21,0.85,-0.67,-23.95,51.61,-400.00
T,S,-0.00,0.03,0.98,4.03,0.61,-0.49,-23.95,51.61,-400.00
T,S,-0.00,0.03,0.98,4.09,0.73,-0.67,-23.95,51.61,-400.00
T,S,-0.00,0.03,0.98,4.27,0.67,-0.61,-23.95,51.61,-400.00
T,S,-0.01,0.02,0.98,4.15,0.73,-0.73,-22.71,51.70,-400.00
T,S,-0.01,0.02,0.98,4.21,0.85,-0.73,-22.71,51.70,-400.00
T,S,-0.01,0.02,0.98,4.09,0.73,-0.61,-22.71,51.70,-400.00
T,S,-0.01,0.03,0.98,4.03,0.92,-0.61,-23.18,51.78,-400.00
T,S,-0.01,0.03,0.98,4.09,0.67,-0.61,-23.18,51.78,-400.00
T,S,-0.01,0.03,0.98,4.27,0.73,-0.61,-23.18,51.78,-400.00
T,S,-0.00,0.03,0.98,4.15,0.98,-0.49,-23.18,51.78,-400.00
T,S,-0.00,0.03,0.98,4.15,0.73,-0.55,-23.44,51.64,-400.00
T,S,-0.01,0.03,0.98,3.97,0.92,-0.61,-23.44,51.64,-400.00
T,S,-0.01,0.02,0.98,4.09,0.73,-0.55,-23.44,51.64,-400.00
T,S,-0.01,0.02,0.98,4.21,0.85,-0.61,-23.24,51.42,-400.00
T,S,-0.00,0.02,0.98,4.21,0.98,-0.73,-23.24,51.42,-400.00
T,S,-0.01,0.02,0.98,4.09,0.61,-0.67,-23.24,51.42,-400.00
T,S,-0.01,0.02,0.97,4.03,0.61,-0.67,-23.24,51.42,-400.00
T,S,-0.01,0.03,0.98,4.15,0.92,-0.49,-23.36,51.72,-400.00
T,S,-0.01,0.03,0.98,3.97,0.67,-0.55,-23.36,51.72,-400.00
T,S,-0.01,0.03,0.97,4.09,0.73,-0.61,-23.36,51.72,-400.00
T,S,-0.01,0.03,0.98,4.27,0.85,-0.55,-23.33,51.73,-400.00
T,S,-0.01,0.03,0.98,3.97,0.61,-0.55,-23.33,51.73,-400.00
T,S,-0.01,0.03,0.98,4.15,0.73,-0.73,-23.33,51.73,-400.00
T,S,-0.01,0.03,0.98,4.15,0.92,-0.43,-23.25,51.51,-400.00
T,S,-0.01,0.02,0.97,3.97,0.79,-0.31,-23.25,51.51,-400.00
T,S,-0.01,0.03,0.98,4.21,0.79,-0.49,-23.25,51.51,-400.00
T,S,-0.00,0.03,0.97,4.21,0.73,-0.55,-23.25,51.51,-400.00
T,S,-0.00,0.03,0.97,4.03,0.85,-0.43,-23.13,51.42,-400.00
T,S,-0.00,0.03,0.98,4.03,0.85,-0.61,-23.13,51.42,-400.00
T,S,-0.00,0.03,0.97,3.97,0.61,-0.61,-23.13,51.42,-400.00
T,S,-0.01,0.03,0.97,4.09,0.67,-0.55,-22.88,52.19,-400.00
T,S,-0.01,0.02,0.98,3.97,0.79,-0.61,-22.88,52.19,-400.00
T,S,-0.01,0.02,0.98,4.03,0.79,-0.61,-22.88,52.19,-400.00
T,S,-0.01,0.03,0.97,3.85,0.73,-0.55,-22.88,52.19,-400.00
T,S,-0.01,0.03,0.98,4.09,0.67,-0.61,-23.46,51.84,-400.00
T,S,-0.01,0.03,0.98,4.09,0.79,-0.43,-23.46,51.84,-400.00
T,S,-0.00,0.02,0.98,4.09,0.79,-0.67,-23.46,51.84,-400.00
T,S,-0.00,0.03,0.97,4.15,0.79,-0.61,-22.94,52.50,-400.00
T,S,-0.01,0.03,0.98,4.15,0.67,-0.61,-22.94,52.50,-400.00
T,S,-0.01,0.02,0.97,4.09,0.73,-0.61,-22.94,52.50,-400.00
T,S,-0.01,0.03,0.97,4.15,0.73,-0.61,-22.99,51.75,-400.00
T,S,-0.01,0.03,0.98,3.91,0.73,-0.61,-22.99,51.75,-400.00
T,S,-0.01,0.02,0.97,3.91,0.67,-0.61,-22.99,51.75,-400.00
T,S,-0.01,0.02,0.97,4.15,0.73,-0.61,-22.99,51.75,-400.00
T,S,-0.01,0.03,0.98,4.09,0.85,-0.61,-23.01,51.61,-400.00
T,S,-0.01,0.02,0.98,4.09,0.61,-0.61,-23.01,51.61,-400.00
T,S,-0.00,0.03,0.97,4.09,0.79,-0.67,-23.01,51.61,-400.00
T,S,-0.01,0.03,0.98,3.91,0.85,-0.61,-22.67,51.20,-400.00
T,S,-0.01,0.03,0.98,3.91,0.79,-0.61,-22.67,51.20,-400.00
T,S,-0.00,0.02,0.98,3.85,0.79,-0.67,-22.67,51.20,-400.00
T,S,-0.00,0.03,0.98,4.09,0.85,-0.49,-22.67,51.20,-400.00
T,S,-0.00,0.03,0.98,3.97,0.79,-0.73,-22.92,51.60,-400.00
T,S,-0.00,0.03,0.98,4.03,0.61,-0.67,-22.92,51.60,-400.00
T,S,-0.01,0.03,0.98,4.03,0.67,-0.67,-22.92,51.60,-400.00
T,S,-0.01,0.02,0.98,4.27,0.85,-0.67,-23.40,51.07,-400.00
T,S,-0.01,0.02,0.98,4.15,0.67,-0.85,-23.40,51.07,-400.00
T,S,-0.01,0.02,0.98,3.97,0.79,-0.49,-23.40,51.07,-400.00
T,S,-0.01,0.02,0.98,4.09,0.85,-0.61,-23.40,51.07,-400.00
T,S,-0.01,0.02,0.98,3.72,0.73,-0.55,-22.71,51.21,-400.00
T,S,-0.01,0.03,0.97,3.97,0.79,-0.67,-22.71,51.21,-400.00
T,S,-0.01,0.03,0.97,3.85,0.67,-0.67,-22.71,51.21,-400.00
T,S,-0.01,0.03,0.98,4.03,0.73,-0.73,-22.88,51.48,-400.00
T,S,-0.00,0.02,0.97,4.15,0.67,-0.61,-22.88,51.48,-400.00
T,S,-0.01,0.02,0.98,4.15,0.67,-0.61,-22.88,51.48,-400.00
T,S,-0.00,0.02,0.97,4.09,0.73,-0.67,-22.75,51.45,-400.00
T,S,-0.01,0.02,0.98,3.97,0.61,-0.55,-22.75,51.45,-400.00
T,S,-0.01,0.02,0.98,4.03,0.79,-0.61,-22.75,51.45,-400.00
T,S,-0.01,0.03,0.98,4.21,0.73,-0.61,-22.75,51.45,-400.00
T,S,-0.00,0.03,0.97,3.85,0.85,-0.61,-22.63,51.35,-400.00
T,S,-0.00,0.03,0.98,4.03,0.67,-0.55,-22.63,51.35,-400.00
T,S,-0.00,0.02,0.98,4.09,0.85,-0.61,-22.63,51.35,-400.00
T,S,-0.01,0.02,0.98,4.15,0.92,-0.67,-23.11,51.32,-400.00
T,S,-0.01,0.02,0.97,3.97,0.61,-0.61,-23.11,51.32,-400.00
T,S,-0.01,0.02,0.98,4.03,0.92,-0.61,-23.11,51.32,-400.00
T,S,-0.01,0.02,0.98,4.15,0.73,-0.61,-23.11,51.32,-400.00
T,S,-0.00,0.02,0.98,4.03,0.67,-0.49,-23.24,51.26,-400.00
T,S,-0.00,0.02,0.98,4.09,0.85,-0.55,-23.24,51.26,-400.00
T,S,-0.00,0.03,0.98,4.03,0.61,-0.73,-23.24,51.26,-400.00
T,S,-0.00,0.03,0.98,4.15,0.73,-0.61,-23.11,51.07,-400.00
T,S,-0.00,0.03,0.98,3.97,0.85,-0.55,-23.11,51.07,-400.00
T,S,-0.00,0.02,0.97,3.97,0.61,-0.55,-23.11,51.07,-400.00
T,S,-0.01,0.03,0.98,4.21,0.85,-0.55,-23.38,51.86,-400.00
T,S,-0.01,0.03,0.98,4.15,0.73,-0.55,-23.38,51.86,-400.00
T,S,-0.01,0.02,0.98,4.03,0.67,-0.49,-23.38,51.86,-400.00
T,S,-0.01,0.02,0.98,4.03,0.73,-0.61,-23.38,51.86,-400.00
T,S,-0.01,0.02,0.98,3.97,0.73,-0.55,-23.14,51.90,-400.00
T,S,-0.01,0.02,0.98,3.97,0.67,-0.61,-23.14,51.90,-400.00
T,S,-0.01,0.03,0.98,4.09,0.92,-0.55,-23.14,51.90,-400.00
T,S,-0.01,0.03,0.98,4.03,0.73,-0.61,-22.90,52.05,-400.00
T,S,-0.01,0.03,0.98,4.03,0.79,-0.49,-22.90,52.05,-400.00
T,S,-0.00,0.02,0.98,3.85,0.79,-0.67,-22.90,52.05,-400.00
T,S,-0.01,0.03,0.98,3.91,0.79,-0.55,-22.90,52.05,-400.00
T,S,-0.01,0.02,0.98,3.78,0.79,-0.55,-23.03,51.50,-400.00
T,S,-0.01,0.02,0.98,3.91,0.79,-0.61,-23.03,51.50,-400.00
T,S,-0.01,0.02,0.98,3.91,0.67,-0.67,-23.03,51.50,-400.00
T,S,-0.01,0.03,0.98,4.09,0.98,-0.67,-22.72,52.16,-400.00
T,S,-0.01,0.02,0.98,4.15,0.98,-0.49,-22.72,52.16,-400.00
T,S,-0.01,0.03,0.98,4.09,0.67,-0.61,-22.72,52.16,-400.00
T,S,-0.01,0.03,0.98,4.09,0.79,-0.67,-22.72,52.16,-400.00
T,S,-0.00,0.03,0.98,4.09,0.67,-0.73,-23.07,52.00,-400.00
T,S,-0.00,0.03,0.98,4.21,0.61,-0.61,-23.07,52.00,-400.00
T,S,-0.01,0.03,0.98,4.09,0.73,-0.55,-23.07,52.00,-400.00
T,S,-0.01,0.03,0.98,4.09,0.79,-0.61,-23.55,51.29,-400.00
T,S,-0.01,0.02,0.98,4.09,0.61,-0.61,-23.55,51.29,-400.00
T,S,-0.01,0.02,0.98,4.03,0.73,-0.61,-23.55,51.29,-400.00
T,S,-0.01,0.02,0.98,4.03,0.73,-0.67,-23.19,51.70,-400.00
T,S,-0.01,0.02,0.98,4.03,0.98,-0.61,-23.19,51.70,-400.00
T,S,-0.01,0.02,0.98,3.85,0.79,-0.61,-23.19,51.70,-400.00
T,S,-0.01,0.02,0.98,3.91,0.73,-0.61,-23.19,51.70,-400.00
T,S,-0.00,0.02,0.98,4.03,0.73,-0.55,-22.67,51.62,-400.00
T,S,-0.00,0.02,0.98,3.91,0.79,-0.55,-22.67,51.62,-400.00
T,S,-0.00,0.02,0.98,4.09,0.73,-0.61,-22.67,51.62,-400.00
T,S,-0.01,0.02,0.98,3.97,0.73,-0.61,-22.86,50.92,-400.00
T,S,-0.01,0.02,0.98,4.09,0.73,-0.67,-22.86,50.92,-400.00
T,S,-0.01,0.03,0.98,3.72,0.67,-0.67,-22.86,50.92,-400.00
T,S,-0.01,0.03,0.98,3.97,0.79,-0.49,-22.86,50.92,-400.00
T,S,-0.00,0.03,0.98,3.78,0.79,-0.61,-23.05,51.82,-400.00
T,S,-0.01,0.03,0.98,3.97,0.73,-0.55,-23.05,51.82,-400.00
T,S,-0.01,0.02,0.98,4.21,0.79,-0.49,-23.05,51.82,-400.00
T,S,-0.01,0.03,0.98,3.97,0.79,-0.43,-22.81,52.00,-400.00
T,S,-0.01,0.02,0.98,4.09,0.61,-0.49,-22.81,52.00,-400.00
T,S,-0.01,0.02,0.98,4.21,0.73,-0.67,-22.81,52.00,-400.00
T,S,-0.01,0.02,0.98,3.97,0.67,-0.55,-22.88,51.46,-400.00
T,S,-0.01,0.02,0.98,4.15,0.67,-0.67,-22.88,51.46,-400.00
T,S,-0.00,0.02,0.98,4.09,0.73,-0.55,-22.88,51.46,-400.00
T,S,-0.01,0.02,0.98,4.21,0.85,-0.73,-22.88,51.46,-400.00
T,S,-0.01,0.03,0.98,4.15,0.85,-0.79,-22.80,51.32,-400.00
T,S,-0.00,0.03,0.98,4.03,0.79,-0.61,-22.80,51.32,-400.00
T,S,-0.01,0.03,0.98,3.97,0.67,-0.61,-22.80,51.32,-400.00
T,S,-0.00,0.03,0.98,4.09,0.67,-0.55,-23.23,51.37,-400.00
T,S,-0.00,0.03,0.98,4.15,0.73,-0.61,-23.23,51.37,-400.00
T,S,-0.01,0.02,0.98,4.09,0.61,-0.61,-23.23,51.37,-400.00
T,S,-0.01,0.02,0.98,3.97,0.61,-0.67,-23.23,51.37,-400.00
T,S,-0.01,0.02,0.98,4.09,0.73,-0.61,-22.99,51.12,-400.00
T,S,-0.01,0.02,0.98,3.97,0.85,-0.49,-22.99,51.12,-400.00
T,S,-0.01,0.02,0.98,4.03,0.85,-0.61,-22.99,51.12,-400.00
T,S,-0.01,0.03,0.98,4.03,0.79,-0.67,-23.25,51.26,-400.00
T,S,-0.01,0.03,0.98,3.97,0.85,-0.67,-23.25,51.26,-400.00
T,S,-0.00,0.03,0.98,4.09,0.85,-0.61,-23.25,51.26,-400.00
T,S,-0.00,0.02,0.98,4.09,0.85,-0.73,-23.25,51.26,-400.00
T,S,-0.01,0.02,0.98,4.15,0.92,-0.67,-23.39,51.67,-400.00
T,S,-0.01,0.03,0.98,3.85,0.92,-0.67,-23.39,51.67,-400.00
T,S,-0.01,0.02,0.98,3.91,0.67,-0.55,-23.39,51.67,-400.00
T,S,-0.01,0.03,0.98,4.09,0.73,-0.61,-23.33,51.93,-400.00
T,S,-0.01,0.03,0.98,3.78,0.61,-0.67,-23.33,51.93,-400.00
T,S,-0.00,0.03,0.98,3.97,0.55,-0.55,-23.33,51.93,-400.00
T,S,-0.00,0.03,0.98,4.27,0.73,-0.67,-22.72,51.49,-400.00
T,S,-0.01,0.03,0.98,4.03,0.79,-0.67,-22.72,51.49,-400.00
T,S,-0.01,0.03,0.98,4.09,0.79,-0.67,-22.72,51.49,-400.00
T,S,-0.01,0.02,0.98,4.15,0.79,-0.67,-22.72,51.49,-400.00
T,S,-0.01,0.02,0.98,4.15,0.79,-0.43,-23.05,51.49,-400.00
T,S,-0.01,0.02,0.98,3.91,0.92,-0.67,-23.05,51.49,-400.00
T,S,-0.01,0.03,0.98,3.85,1.04,-0.61,-23.05,51.49,-400.00
T,S,-0.00,0.03,0.98,4.03,0.98,-0.55,-23.39,51.14,-400.00
T,S,-0.00,0.03,0.98,4.09,0.92,-0.73,-23.39,51.14,-400.00
T,S,-0.00,0.03,0.98,3.91,0.67,-0.61,-23.39,51.14,-400.00
T,S,-0.00,0.02,0.98,3.78,0.67,-0.79,-23.39,51.14,-400.00
T,S,-0.01,0.03,0.98,4.09,0.85,-0.61,-23.01,51.66,-400.00
T,S,-0.01,0.02,0.98,4.15,0.67,-0.67,-23.01,51.66,-400.00
T,S,-0.01,0.02,0.98,4.03,0.79,-0.67,-23.01,51.66,-400.00
T,S,-0.01,0.02,0.98,4.21,0.79,-0.67,-23.07,51.48,-400.00
T,S,-0.00,0.03,0.98,4.03,0.73,-0.55,-23.07,51.48,-400.00
T,S,-0.01,0.03,0.98,3.85,0.73,-0.55,-23.07,51.48,-400.00
T,S,-0.01,0.02,0.98,3.91,0.73,-0.49,-23.24,52.34,-400.00
T,S,-0.01,0.03,0.98,4.03,0.73,-0.67,-23.24,52.34,-400.00
T,S,-0.01,0.03,0.98,4.03,0.67,-0.49,-23.24,52.34,-400.00
T,S,-0.01,0.03,0.98,3.97,0.79,-0.61,-23.24,52.34,-400.00
T,S,-0.01,0.02,0.98,3.97,0.92,-0.61,-23.24,51.89,-400.00
T,S,-0.01,0.02,0.98,3.85,0.67,-0.67,-23.24,51.89,-400.00
T,S,-0.01,0.02,0.98,4.09,0.79,-0.49,-23.24,51.89,-400.00
T,S,-0.01,0.02,0.98,3.91,0.79,-0.61,-23.33,51.86,-400.00
T,S,-0.01,0.02,0.98,4.03,0.79,-0.61,-23.33,51.86,-400.00
T,S,-0.01,0.03,0.98,3.97,0.79,-0.55,-23.33,51.86,-400.00
T,S,-0.01,0.03,0.98,4.03,0.92,-0.61,-23.33,51.86,-400.00
T,S,-0.01,0.02,0.98,3.97,0.85,-0.67,-22.92,51.72,-400.00
T,S,-0.01,0.03,0.98,3.97,0.67,-0.61,-22.92,51.72,-400.00
T,S,-0.01,0.03,0.98,3.85,0.85,-0.61,-22.92,51.72,-400.00
T,S,-0.00,0.02,0.98,3.91,0.92,-0.49,-23.44,51.12,-400.00
T,S,-0.00,0.02,0.98,4.03,0.67,-0.61,-23.44,51.12,-400.00
T,S,-0.01,0.02,0.98,3.97,0.67,-0.67,-23.44,51.12,-400.00
T,S,-0.01,0.03,0.98,3.85,0.92,-0.55,-23.44,51.12,-400.00
T,S,-0.01,0.03,0.98,3.91,0.79,-0.49,-23.55,51.99,-400.00
T,S,-0.01,0.02,0.98,3.85,0.85,-0.49,-23.55,51.99,-400.00
T,S,-0.00,0.02,0.98,3.78,0.92,-0.67,-23.55,51.99,-400.00
T,S,-0.01,0.02,0.98,4.09,0.85,-0.67,-22.84,51.55,-400.00
T,S,-0.01,0.02,0.98,4.03,0.98,-0.67,-22.84,51.55,-400.00
T,S,-0.01,0.03,0.98,3.91,0.92,-0.73,-22.84,51.55,-400.00
T,S,-0.01,0.03,0.98,3.78,0.92,-0.61,-23.32,51.55,-400.00
T,S,-0.01,0.03,0.98,3.72,0.79,-0.61,-23.32,51.55,-400.00
T,S,-0.00,0.03,0.98,3.54,0.92,-0.73,-23.32,51.55,-400.00
T,S,-0.00,0.03,0.98,3.97,0.79,-0.49,-23.32,51.55,-400.00
T,S,-0.01,0.02,0.98,4.09,0.85,-0.73,-22.96,51.84,-400.00
T,S,-0.01,0.02,0.99,3.54,0.85,-0.85,-22.96,51.84,-400.00
T,S,-0.00,0.03,0.97,3.91,0.73,-0.67,-22.96,51.84,-400.00
T,S,-0.00,0.03,0.97,3.85,0.67,-0.55,-23.30,51.14,-400.00
T,S,-0.01,0.02,0.98,3.91,1.16,-0.61,-23.30,51.14,-400.00
T,S,-0.00,0.03,0.98,3.97,0.85,-0.73,-23.30,51.14,-400.00
T,S,-0.00,0.04,0.98,3.91,0.73,-0.61,-23.30,51.14,-400.00
T,S,-0.00,0.03,0.98,4.15,0.85,-0.55,-23.58,51.46,-400.00
T,S,-0.01,0.03,0.98,4.09,0.55,-0.55,-23.58,51.46,-400.00
T,S,-0.00,0.03,0.98,3.91,0.73,-0.49,-23.58,51.46,-400.00
T,S,-0.01,0.02,0.98,4.09,0.73,-0.61,-23.60,52.05,-400.00
T,S,-0.01,0.03,0.98,4.03,0.61,-0.55,-23.60,52.05,-400.00
T,S,-0.01,0.03,0.98,4.03,0.85,-0.61,-23.60,52.05,-400.00
T,S,-0.00,0.03,0.98,4.03,0.67,-0.73,-23.11,51.81,-400.00
T,S,-0.00,0.02,0.98,4.21,0.67,-0.61,-23.11,51.81,-400.00
T,S,-0.00,0.02,0.98,4.03,0.73,-0.79,-23.11,51.81,-400.00
T,S,-0.01,0.02,0.98,4.03,0.79,-0.61,-23.11,51.81,-400.00
T,S,-0.01,0.02,0.98,4.09,0.79,-0.67,-23.71,51.61,-400.00
T,S,-0.01,0.02,0.98,4.15,1.04,-0.49,-23.71,51.61,-400.00
T,S,-0.01,0.02,0.98,4.09,0.85,-0.73,-23.71,51.61,-400.00
T,S,-0.00,0.03,0.98,4.03,0.61,-0.55,-23.22,51.75,-400.00
T,S,-0.00,0.03,0.99,4.09,0.79,-0.49,-23.22,51.75,-400.00
T,S,-0.01,0.03,0.98,4.21,0.73,-0.61,-23.22,51.75,-400.00
T,S,-0.01,0.03,0.98,3.97,0.85,-0.61,-23.22,51.75,-400.00
T,S,-0.01,0.03,0.98,3.78,0.79,-0.55,-23.95,51.75,-400.00
T,S,-0.01,0.03,0.98,4.15,0.79,-0.61,-23.95,51.75,-400.00
T,S,-0.01,0.02,0.98,3.97,0.85,-0.43,-23.95,51.75,-400.00
T,S,-0.01,0.03,0.98,4.27,0.79,-0.43,-23.40,51.66,-400.00
T,S,-0.00,0.03,0.98,4.15,0.73,-0.67,-23.40,51.66,-400.00
T,S,-0.01,0.03,0.98,4.15,0.85,-0.67,-23.40,51.66,-400.00
T,S,-0.01,0.03,0.98,4.21,0.67,-0.61,-23.40,51.66,-400.00
T,S,-0.01,0.02,0.98,4.03,0.73,-0.55,-22.96,52.20,-400.00
T,S,-0.01,0.02,0.98,4.03,0.79,-0.61,-22.96,52.20,-400.00
T,S,-0.00,0.03,0.98,3.97,0.92,-0.55,-22.96,52.20,-400.00
T,S,-0.00,0.03,0.98,4.15,0.92,-0.67,-23.16,51.95,-400.00
T,S,-0.00,0.03,0.98,4.03,0.61,-0.67,-23.16,51.95,-400.00
T,S,-0.01,0.03,0.98,4.09,0.73,-0.61,-23.16,51.95,-400.00
T,S,-0.01,0.02,0.98,4.03,0.67,-0.61,-23.47,52.12,-400.00
T,S,-0.01,0.02,0.98,3.78,0.73,-0.49,-23.47,52.12,-400.00
T,S,-0.00,0.03,0.98,4.09,0.73,-0.61,-23.47,52.12,-400.00
T,S,-0.00,0.03,0.98,3.97,0.92,-0.55,-23.47,52.12,-400.00
T,S,-0.01,0.03,0.98,4.03,0.79,-0.43,-24.29,52.14,-400.00
T,S,-0.01,0.03,0.98,4.33,0.73,-0.61,-24.29,52.14,-400.00
T,S,-0.00,0.02,0.98,4.09,0.85,-0.61,-24.29,52.14,-400.00
T,S,-0.00,0.02,0.98,4.33,0.67,-0.61,-23.40,51.39,-400.00
T,S,-0.01,0.02,0.98,4.15,0.61,-0.49,-23.40,51.39,-400.00
T,S,-0.01,0.03,0.98,3.97,0.79,-0.61,-23.40,51.39,-400.00
T,S,-0.01,0.03,0.98,4.15,0.79,-0.61,-23.40,51.39,-400.00
T,S,-0.00,0.02,0.98,4.15,0.79,-0.49,-22.41,51.42,-400.00
T,S,-0.00,0.02,0.98,4.03,0.73,-0.55,-22.41,51.42,-400.00
T,S,-0.01,0.02,0.98,4.09,0.92,-0.61,-22.41,51.42,-400.00
T,S,-0.01,0.03,0.98,4.03,0.98,-0.61,-22.86,51.50,-400.00
T,S,-0.01,0.03,0.98,3.97,0.79,-0.43,-22.86,51.50,-400.00
T,S,-0.01,0.03,0.98,4.03,0.79,-0.55,-22.86,51.50,-400.00
T,S,-0.00,0.03,0.98,4.03,0.73,-0.55,-23.72,51.73,-400.00
T,S,-0.00,0.03,0.98,4.21,0.98,-0.61,-23.72,51.73,-400.00
T,S,-0.00,0.03,0.98,4.21,0.92,-0.73,-23.72,51.73,-400.00
T,S,-0.01,0.03,0.98,4.15,0.67,-0.61,-23.72,51.73,-400.00
T,S,-0.01,0.03,0.98,4.09,0.73,-0.61,-23.40,52.01,-400.00
T,S,-0.01,0.02,0.98,3.91,0.85,-0.73,-23.40,52.01,-400.00
T,S,-0.01,0.02,0.98,4.09,0.73,-0.73,-23.40,52.01,-400.00
T,S,-0.00,0.03,0.98,4.15,0.92,-0.73,-22.92,51.66,-400.00
T,S,-0.00,0.03,0.98,4.03,0.73,-0.61,-22.92,51.66,-400.00
T,S,-0.00,0.03,0.98,4.09,0.79,-0.67,-22.92,51.66,-400.00
T,S,-0.01,0.03,0.98,4.03,0.85,-0.67,-22.92,51.66,-400.00
T,S,-0.00,0.03,0.98,4.09,0.73,-0.61,-23.58,51.22,-400.00
T,S,-0.01,0.02,0.98,4.09,0.79,-0.43,-23.58,51.22,-400.00
T,S,-0.00,0.02,0.98,4.03,0.73,-0.49,-23.58,51.22,-400.00
T,S,-0.01,0.03,0.98,4.15,0.67,-0.61,-23.17,51.75,-400.00
T,S,-0.01,0.03,0.98,3.97,0.85,-0.61,-23.17,51.75,-400.00
T,S,-0.00,0.03,0.98,3.85,1.04,-0.79,-23.17,51.75,-400.00
T,S,-0.01,0.03,0.98,4.03,0.73,-0.73,-23.17,51.75,-400.00
T,S,-0.01,0.03,0.98,4.03,0.85,-0.61,-22.97,52.11,-400.00
T,S,-0.00,0.03,0.98,3.91,0.98,-0.67,-22.97,52.11,-400.00
T,S,-0.01,0.03,0.98,4.03,0.79,-0.61,-22.97,52.11,-400.00
T,S,-0.01,0.03,0.98,4.09,0.55,-0.67,-23.30,51.67,-400.00
T,S,-0.01,0.03,0.98,4.03,0.92,-0.43,-23.30,51.67,-400.00
T,S,-0.00,0.02,0.98,3.91,0.79,-0.43,-23.30,51.67,-400.00
T,S,-0.00,0.03,0.98,4.09,0.79,-0.67,-23.33,51.22,-400.00
T,S,-0.01,0.02,0.99,4.15,0.79,-0.67,-23.33,51.22,-400.00
T,S,-0.01,0.03,0.99,4.09,0.73,-0.55,-23.33,51.22,-400.00
T,S,-0.00,0.03,0.98,4.27,0.61,-0.67,-23.33,51.22,-400.00
T,S,-0.00,0.03,0.98,4.03,0.85,-0.67,-23.41,51.57,-400.00
T,S,-0.01,0.03,0.98,4.15,0.79,-0.61,-23.41,51.57,-400.00
T,S,-0.01,0.03,0.98,4.15,0.37,-0.61,-23.41,51.57,-400.00
T,S,-0.01,0.02,0.98,3.97,0.73,-0.61,-22.94,51.88,-400.00
T,S,-0.01,0.02,0.98,4.09,0.85,-0.55,-22.94,51.88,-400.00
T,S,-0.01,0.02,0.98,4.21,0.49,-0.55,-22.94,51.88,-400.00
T,S,-0.01,0.03,0.98,4.03,0.67,-0.61,-22.94,51.88,-400.00
T,S,-0.01,0.03,0.98,3.97,0.61,-0.67,-23.86,52.12,-400.00
T,S,-0.01,0.03,0.98,4.03,0.61,-0.73,-23.86,52.12,-400.00
T,S,-0.00,0.03,0.98,4.15,0.55,-0.67,-23.86,52.12,-400.00
T,S,-0.01,0.03,0.98,3.97,0.98,-0.61,-23.44,51.78,-400.00
T,S,-0.01,0.03,0.98,4.09,0.98,-0.49,-23.44,51.78,-400.00
T,S,-0.01,0.03,0.98,3.97,1.04,-0.67,-23.44,51.78,-400.00
T,S,-0.00,0.03,0.98,4.09,0.98,-0.61,-23.12,51.87,-400.00
T,S,-0.00,0.02,0.98,4.03,0.98,-0.55,-23.12,51.87,-400.00
T,S,-0.01,0.03,0.98,4.09,0.73,-0.61,-23.12,51.87,-400.00
T,S,-0.01,0.03,0.98,3.85,0.79,-0.67,-23.12,51.87,-400.00
T,S,-0.01,0.03,0.98,3.97,0.85,-0.61,-22.66,51.79,-400.00
T,S,-0.01,0.03,0.98,4.09,0.61,-0.49,-22.66,51.79,-400.00
T,S,-0.00,0.02,0.98,4.09,0.79,-0.55,-22.66,51.79,-400.00
T,S,-0.01,0.03,0.98,3.97,0.67,-0.61,-23.84,52.14,-400.00
T,S,-0.01,0.03,0.98,3.97,0.79,-0.55,-23.84,52.14,-400.00
T,S,-0.01,0.03,0.98,4.09,0.73,-0.67,-23.84,52.14,-400.00
T,S,-0.00,0.03,0.98,4.03,0.92,-0.49,-23.84,52.14,-400.00
T,S,-0.01,0.02,0.98,3.91,0.61,-0.55,-23.16,51.78,-400.00
T,S,-0.01,0.03,0.98,4.27,0.73,-0.73,-23.16,51.78,-400.00
T,S,-0.01,0.03,0.98,3.78,0.73,-0.67,-23.16,51.78,-400.00
T,S,-0.01,0.03,0.98,4.03,0.67,-0.49,-23.93,51.66,-400.00
T,S,-0.01,0.03,0.98,3.91,0.79,-0.49,-23.93,51.66,-400.00
T,S,-0.01,0.03,0.98,3.97,0.92,-0.67,-23.93,51.66,-400.00
T,S,-0.01,0.03,0.98,3.91,0.85,-0.73,-23.93,51.66,-400.00
T,S,-0.01,0.03,0.98,3.91,0.67,-0.61,-23.30,52.04,-400.00
T,S,-0.00,0.03,0.98,4.03,0.73,-0.61,-23.30,52.04,-400.00
T,S,-0.01,0.03,0.98,3.97,0.73,-0.61,-23.30,52.04,-400.00
T,S,-0.00,0.03,0.98,4.03,0.79,-0.67,-23.33,52.48,-400.00
T,S,-0.01,0.03,0.98,4.21,0.73,-0.79,-23.33,52.48,-400.00
T,S,-0.01,0.03,0.98,4.09,0.79,-0.67,-23.33,52.48,-400.00
T,S,-0.01,0.03,0.98,4.09,0.73,-0.55,-23.52,52.34,-400.00
T,S,-0.00,0.03,0.98,3.91,0.73,-0.49,-23.52,52.34,-400.00
T,S,-0.00,0.03,0.98,4.15,0.79,-0.55,-23.52,52.34,-400.00
T,S,-0.01,0.03,0.98,4.27,0.85,-0.67,-23.52,52.34,-400.00
T,S,-0.01,0.03,0.98,3.97,0.61,-0.55,-23.66,51.70,-400.00
T,S,-0.01,0.03,0.98,4.03,0.79,-0.61,-23.66,51.70,-400.00
T,S,-0.01,0.03,0.98,4.03,0.79,-0.73,-23.66,51.70,-400.00
T,S,-0.01,0.03,0.98,4.09,0.92,-0.61,-23.82,51.37,-400.00
T,S,-0.01,0.03,0.98,4.21,0.73,-0.61,-23.82,51.37,-400.00
T,S,-0.01,0.03,0.98,3.97,0.79,-0.55,-23.82,51.37,-400.00
T,S,-0.01,0.03,0.98,4.09,0.92,-0.73,-23.82,51.37,-400.00
T,S,-0.01,0.02,0.98,4.27,0.79,-0.49,-23.12,52.25,-400.00
T,S,-0.01,0.03,0.98,4.21,0.79,-0.67,-23.12,52.25,-400.00
T,S,-0.01,0.03,0.98,4.03,0.85,-0.55,-23.12,52.25,-400.00
T,S,-0.01,0.03,0.98,3.97,0.67,-0.55,-23.99,51.56,-400.00
T,S,-0.01,0.03,0.98,3.85,0.73,-0.67,-23.99,51.56,-400.00
T,S,-0.00,0.03,0.98,3.97,0.85,-0.61,-23.99,51.56,-400.00
T,S,-0.01,0.02,0.98,4.15,0.79,-0.49,-23.99,52.42,-400.00
T,S,-0.01,0.03,0.98,4.03,0.85,-0.49,-23.99,52.42,-400.00
T,S,-0.01,0.03,0.98,4.03,0.85,-0.79,-23.99,52.42,-400.00
T,S,-0.01,0.03,0.98,3.97,0.61,-0.73,-23.99,52.42,-400.00
T,S,-0.00,0.03,0.98,4.09,0.67,-0.55,-23.68,51.66,-400.00
T,S,-0.01,0.03,0.98,4.09,0.55,-0.61,-23.68,51.66,-400.00
T,S,-0.01,0.03,0.98,4.21,0.85,-0.73,-23.68,51.66,-400.00
T,S,-0.01,0.03,0.98,3.85,0.85,-0.67,-23.40,52.27,-400.00
T,S,-0.01,0.03,0.98,3.85,0.67,-0.67,-23.40,52.27,-400.00
T,S,-0.00,0.03,0.98,4.03,0.85,-0.61,-23.40,52.27,-400.00
T,S,-0.01,0.03,0.98,4.09,0.73,-0.67,-23.40,52.27,-400.00
T,S,-0.00,0.03,0.98,4.09,0.85,-0.61,-23.08,52.38,-400.00
T,S,-0.00,0.03,0.98,4.03,0.79,-0.61,-23.08,52.38,-400.00
T,S,-0.01,0.03,0.98,4.03,0.79,-0.73,-23.08,52.38,-400.00
T,S,-0.01,0.03,0.98,4.27,0.67,-0.55,-23.32,52.01,-400.00
T,S,-0.01,0.03,0.98,4.09,0.85,-0.49,-23.32,52.01,-400.00
T,S,-0.01,0.03,0.98,4.27,0.85,-0.67,-23.32,52.01,-400.00
T,S,-0.00,0.03,0.98,4.03,0.98,-0.49,-23.32,52.01,-400.00
T,S,-0.01,0.03,0.98,3.97,0.92,-0.61,-23.75,52.08,-400.00
T,S,-0.00,0.03,0.98,4.03,0.79,-0.55,-23.75,52.08,-400.00
T,S,-0.01,0.03,0.98,4.09,0.73,-0.61,-23.75,52.08,-400.00
T,S,-0.01,0.03,0.98,4.27,0.73,-0.61,-22.71,51.84,-400.00
T,S,-0.01,0.03,0.98,4.03,0.73,-0.49,-22.71,51.84,-400.00
T,S,-0.00,0.03,0.98,4.03,0.67,-0.79,-22.71,51.84,-400.00
T,S,-0.01,0.03,0.98,3.97,0.85,-0.49,-22.69,51.78,-400.00
T,S,-0.00,0.03,0.98,4.03,0.73,-0.55,-22.69,51.78,-400.00
T,S,-0.01,0.03,0.98,4.09,1.04,-0.55,-22.69,51.78,-400.00
T,S,-0.00,0.03,0.98,4.09,0.79,-0.67,-22.69,51.78,-400.00
T,S,-0.01,0.03,0.98,4.03,0.85,-0.73,-23.46,51.49,-400.00
T,S,-0.01,0.03,0.98,4.27,0.98,-0.55,-23.46,51.49,-400.00
T,S,-0.01,0.03,0.98,4.15,0.79,-0.61,-23.46,51.49,-400.00
T,S,-0.01,0.03,0.98,4.21,0.73,-0.61,-23.19,51.81,-400.00
T,S,-0.01,0.03,0.98,4.03,0.61,-0.55,-23.19,51.81,-400.00
T,S,-0.01,0.03,0.98,4.09,0.55,-0.61,-23.19,51.81,-400.00
T,S,-0.01,0.03,0.98,4.15,0.61,-0.67,-23.19,51.81,-400.00
T,S,-0.01,0.03,0.98,4.09,0.67,-0.67,-23.44,52.05,-400.00
T,S,-0.00,0.03,0.98,4.09,0.92,-0.55,-23.44,52.05,-400.00
T,S,-0.01,0.03,0.98,4.09,0.98,-0.61,-23.44,52.05,-400.00
T,S,-0.01,0.03,0.98,4.09,0.79,-0.67,-23.40,51.66,-400.00
T,S,-0.00,0.03,0.98,4.21,0.73,-0.67,-23.40,51.66,-400.00
T,S,-0.01,0.03,0.98,3.97,0.73,-0.61,-23.40,51.66,-400.00
T,S,-0.01,0.03,0.98,3.97,0.92,-0.73,-23.22,51.54,-400.00
T,S,-0.01,0.03,0.98,4.15,0.85,-0.67,-23.22,51.54,-400.00
T,S,-0.01,0.03,0.98,4.15,0.79,-0.55,-23.22,51.54,-400.00
T,S,-0.01,0.03,0.98,3.91,0.79,-0.61,-23.22,51.54,-400.00
T,S,-0.01,0.03,0.98,3.97,0.85,-0.55,-23.49,52.16,-400.00
T,S,-0.01,0.02,1.00,4.88,-1.22,-0.79,-23.49,52.16,-400.00
T,S,-0.01,0.03,0.99,4.09,0.49,-0.49,-23.49,52.16,-400.00
T,S,-0.01,0.03,0.98,4.58,-0.61,-0.67,-23.91,51.94,-400.00
T,S,-0.00,0.03,0.97,3.78,1.59,-0.55,-23.91,51.94,-400.00
T,S,-0.00,0.03,0.97,4.21,0.37,-0.67,-23.91,51.94,-400.00
T,S,-0.01,0.03,0.97,4.33,0.06,-0.79,-23.91,51.94,-400.00
T,S,-0.00,0.03,0.95,6.23,-4.52,-1.65,-23.22,51.62,-400.00
T,S,0.01,0.03,0.91,1.95,5.25,-1.65,-23.22,51.62,-400.00
T,S,0.00,0.02,0.98,5.13,-2.01,-2.01,-23.22,51.62,-400.00
T,S,-0.01,0.02,0.98,4.33,0.43,-1.04,-23.21,51.70,-400.00
T,S,-0.01,0.02,0.98,4.94,-0.98,-1.10,-23.21,51.70,-400.00
T,S,-0.00,0.02,0.97,4.46,0.18,-0.98,-23.21,51.70,-400.00
T,S,-0.01,0.02,0.97,4.52,-0.37,-0.67,-23.21,51.70,-400.00
T,S,-0.01,0.02,0.98,4.46,-0.49,-0.06,-23.75,52.01,-400.00
T,S,0.10,0.02,0.97,3.72,1.22,2.69,-23.75,52.01,-400.00
T,S,-0.19,-0.03,1.10,4.58,2.69,28.38,-23.75,52.01,-400.00
T,S,-0.04,0.06,0.96,-4.33,21.12,19.65,-23.08,52.53,-400.00
T,S,-0.06,0.07,0.98,1.40,13.00,1.77,-23.08,52.53,-400.00
T,S,-0.06,0.05,0.99,4.64,13.67,-0.12,-23.08,52.53,-400.00
T,S,-0.00,0.03,1.00,16.54,17.52,-3.48,-22.18,51.98,-400.00
T,S,0.06,0.02,0.99,33.51,25.57,-0.79,-22.18,51.98,-400.00
T,S,0.03,0.02,0.99,39.61,29.54,-0.06,-22.18,51.98,-400.00
T,S,0.13,-0.02,0.99,63.17,33.81,-0.18,-22.18,51.98,-400.00
T,S,0.04,-0.08,0.99,92.16,37.48,2.93,-23.07,51.62,-400.00
T,S,0.01,-0.03,1.05,61.58,61.46,0.61,-23.07,51.62,-400.00
T,S,0.09,-0.07,0.95,31.01,82.34,0.61,-23.07,51.62,-400.00
T,S,0.14,-0.07,0.94,38.39,87.10,0.31,-22.63,51.11,-400.00
T,S,0.19,-0.02,1.17,66.96,80.51,3.11,-22.63,51.11,-400.00
T,S,0.24,-0.00,1.26,-63.60,85.33,4.94,-22.63,51.11,-400.00
T,S,0.31,0.01,0.90,-101.62,86.12,8.61,-22.63,51.11,-400.00
T,S,0.26,0.01,1.01,-93.14,86.18,15.26,-21.98,51.14,-400.00
T,S,0.39,-0.05,0.80,-76.54,81.48,13.18,-21.98,51.14,-400.00
T,S,0.20,-0.07,0.72,-22.95,82.95,20.75,-21.98,51.14,-400.00
T,S,0.35,-0.10,1.24,85.39,64.82,12.70,-20.19,50.93,-400.00
T,S,0.19,-0.06,1.07,40.89,36.07,14.34,-20.19,50.93,-400.00
T,S,0.27,-0.01,1.11,24.84,-5.13,-1.16,-20.19,50.93,-400.00
T,S,0.28,-0.02,1.11,6.59,-15.87,2.20,-20.19,49.94,-400.00
T,S,0.51,-0.18,1.15,-31.13,-13.24,18.13,-19.54,49.94,-400.00
T,S,0.18,-0.18,1.12,-21.73,-15.38,18.74,-19.54,49.94,-400.00
T,S,0.24,-0.16,1.11,-42.18,-47.00,-15.14,-19.54,49.94,-400.00
T,S,0.29,-0.07,0.87,-30.40,-55.79,-22.28,-18.38,47.42,-400.00
T,S,0.24,-0.01,0.93,23.93,-52.25,-23.01,-18.38,47.42,-400.00
T,S,0.15,0.05,0.89,33.02,-55.11,-23.13,-18.38,47.42,-400.00
T,S,0.10,0.13,1.00,31.74,-58.47,-24.60,-18.91,45.32,-400.00
T,S,0.18,0.21,0.75,-35.46,-44.74,-28.93,-18.91,45.32,-400.00
T,S,0.33,0.09,0.60,-10.62,-29.91,1.83,-18.91,45.32,-400.00
T,S,0.20,-0.07,1.13,-1.71,-8.30,33.69,-18.91,45.32,-400.00
T,S,0.13,-0.11,1.20,-87.95,-7.26,22.95,-17.46,43.95,-400.00
T,S,0.19,-0.00,0.59,-199.22,1.77,2.32,-17.46,43.95,-400.00
T,S,0.03,0.13,0.50,-49.62,25.70,5.55,-17.46,43.95,-400.00
T,S,0.19,0.14,0.56,170.96,37.29,-3.85,-17.08,43.32,-400.00
T,S,0.27,-0.09,0.41,316.47,50.23,6.77,-17.08,43.32,-400.00
T,S,0.21,-0.31,1.32,536.99,38.82,27.95,-17.08,43.32,-400.00
T,S,0.18,-0.19,1.50,319.82,8.61,28.56,-17.08,43.32,-400.00
T,S,0.24,-0.22,1.31,162.35,-4.64,27.59,-16.38,44.14,-400.00
T,S,0.19,-0.23,1.15,-37.23,-24.84,40.95,-16.38,44.14,-400.00
T,S,0.15,-0.28,0.82,-95.34,-39.86,30.40,-16.38,44.14,-400.00
T,S,0.16,-0.27,0.88,-18.37,-65.61,12.39,-15.66,43.93,-400.00
T,S,0.14,-0.26,0.87,4.33,-78.55,2.50,-15.66,43.93,-400.00
T,S,0.20,-0.24,0.75,7.02,-93.02,-5.49,-15.66,43.93,-400.00
T,S,0.24,-0.32,0.64,-26.61,-71.59,7.51,-14.06,43.60,-400.00
T,S,0.17,-0.36,0.57,-51.21,-35.64,9.28,-14.06,43.60,-400.00
T,S,0.03,-0.36,0.91,-78.92,-9.77,-3.66,-14.06,43.60,-400.00
T,S,0.09,-0.12,0.82,-134.52,15.08,-27.10,-14.06,43.60,-400.00
T,S,0.14,0.04,0.98,-75.07,2.38,-13.55,-15.03,43.03,-400.00
T,S,0.11,0.02,1.09,-63.96,-7.20,-0.31,-15.03,43.03,-400.00
T,S,0.07,-0.08,0.85,-101.38,-15.69,13.49,-15.03,43.03,-400.00
T,S,0.06,-0.13,0.80,-62.19,-1.71,9.58,-14.40,43.19,-400.00
T,S,0.05,-0.08,0.99,-18.55,12.08,-5.37,-14.40,43.19,-400.00
T,S,0.06,-0.03,1.14,-12.02,20.94,-12.02,-14.40,43.19,-400.00
T,S,0.06,0.05,1.19,-15.44,25.15,-18.86,-14.40,43.19,-400.00
T,S,0.07,0.11,1.11,38.51,-13.67,-16.36,-14.61,43.52,-400.00
T,S,0.10,0.11,1.23,60.97,-35.46,-1.53,-14.61,43.52,-400.00
T,S,0.13,0.04,1.13,20.02,-39.25,8.54,-14.61,43.52,-400.00
T,S,0.08,-0.10,0.94,-30.82,-42.66,22.95,-13.62,43.09,-400.00
T,S,0.05,-0.17,0.90,-45.78,-32.35,15.81,-13.62,43.09,-400.00
T,S,0.05,-0.15,0.90,-50.23,-24.05,8.61,-13.62,43.09,-400.00
T,S,0.02,-0.05,0.90,-59.20,-17.46,-4.58,-13.81,42.65,-400.00
T,S,0.03,0.08,0.91,-74.34,-15.01,-8.73,-13.81,42.65,-400.00
T,S,0.05,0.10,0.65,-62.56,-8.61,0.00,-13.81,42.65,-400.00
T,S,0.05,0.06,0.68,-14.83,-6.10,7.14,-13.81,42.65,-400.00
T,S,0.04,-0.04,1.03,45.23,2.69,11.41,-13.49,42.44,-400.00
T,S,0.06,-0.03,0.93,2.01,1.59,3.91,-13.49,42.44,-400.00
T,S,0.07,-0.01,0.94,2.62,-2.62,1.65,-13.49,42.44,-400.00
T,S,0.05,-0.01,0.96,-3.17,-1.53,1.34,-13.43,41.89,-400.00
T,S,0.04,0.01,0.93,-3.97,0.98,-2.62,-13.43,41.89,-400.00
T,S,0.04,0.04,1.05,3.11,2.08,-4.88,-13.43,41.89,-400.00
T,S,0.05,0.04,1.00,-5.55,1.53,-4.88,-13.43,41.89,-400.00
T,S,0.05,0.04,0.94,-0.06,-7.26,-4.09,-13.44,41.72,-400.00
T,S,0.04,0.02,0.92,14.83,-8.54,-4.52,-13.44,41.72,-400.00
T,S,0.03,0.04,1.00,15.44,0.06,-5.43,-13.44,41.72,-400.00
T,S,0.04,0.05,1.00,3.48,2.93,-5.07,-13.31,41.63,-400.00
T,S,0.04,0.03,0.94,-2.69,3.66,-3.60,-13.31,41.63,-400.00
T,S,0.02,0.01,1.01,15.26,-0.98,-4.58,-13.31,41.63,-400.00
T,S,0.01,0.02,0.97,11.11,-0.92,-8.00,-13.31,41.63,-400.00
T,S,0.03,0.05,0.99,18.55,2.01,-8.54,-13.68,41.69,-400.00
T,S,0.02,0.06,1.02,10.50,5.49,-6.16,-13.68,41.69,-400.00
T,S,0.01,0.07,1.03,3.54,-1.95,-3.78,-13.68,41.69,-400.00
T,S,0.02,0.08,1.01,-1.65,-4.52,13.73,-13.93,42.11,-400.00
T,S,0.01,0.07,0.99,-5.62,-1.95,4.27,-13.93,42.11,-400.00
T,S,0.03,0.03,1.01,-2.20,-2.26,7.75,-13.93,42.11,-400.00
T,S,0.03,0.00,1.00,-12.27,0.06,8.36,-13.59,41.64,-400.00
T,S,0.03,0.00,0.97,-12.76,1.28,6.47,-13.59,41.64,-400.00
T,S,0.03,0.02,0.98,4.64,-1.65,2.20,-13.59,41.64,-400.00
T,S,0.02,0.04,1.00,13.37,-2.38,-0.67,-13.59,41.64,-400.00
T,S,0.02,0.06,1.01,6.04,-0.31,-0.43,-13.55,41.74,-400.00
T,S,0.03,0.09,1.01,2.32,0.43,1.71,-13.55,41.74,-400.00
T,S,0.04,0.06,0.98,-0.43,-3.72,8.36,-13.55,41.74,-400.00
T,S,0.02,-0.00,0.98,10.44,-5.13,9.22,-13.50,41.32,-400.00
T,S,0.02,-0.00,0.98,12.15,-2.93,1.83,-13.50,41.32,-400.00
T,S,0.01,0.06,1.00,12.21,-1.34,-0.43,-13.50,41.32,-400.00
T,S,0.03,0.12,1.00,10.01,-5.62,2.44,-13.50,41.32,-400.00
T,S,0.02,0.09,0.98,2.32,-10.31,12.39,-12.85,41.98,-400.00
T,S,-0.01,0.05,0.93,-0.49,-11.29,14.77,-12.85,41.98,-400.00
T,S,-0.02,0.04,0.96,7.63,-9.83,11.96,-12.85,41.98,-400.00
T,S,0.00,0.10,0.91,11.35,-10.74,8.24,-12.32,41.71,-400.00
T,S,0.03,0.12,0.95,17.21,-6.04,16.85,-12.32,41.71,-400.00
T,S,0.05,0.01,0.94,14.34,-5.19,24.05,-12.32,41.71,-400.00
T,S,-0.03,-0.15,0.96,11.35,-5.49,24.90,-12.32,41.97,-400.00
T,S,-0.03,-0.12,0.92,10.25,-2.08,1.53,-11.88,41.97,-400.00
T,S,-0.01,-0.04,0.94,19.59,-2.20,-12.39,-11.88,41.97,-400.00
T,S,-0.01,0.11,1.05,20.69,-3.30,-10.93,-11.88,41.97,-400.00
T,S,-0.01,0.14,1.00,-1.65,-5.07,0.12,-11.76,41.53,-400.00
T,S,-0.02,0.10,1.00,-4.58,-10.80,12.51,-11.76,41.53,-400.00
T,S,-0.02,0.08,0.95,-7.57,-14.34,15.99,-11.76,41.53,-400.00
T,S,-0.03,0.06,0.93,-3.97,-12.51,18.55,-11.56,41.53,-400.00
T,S,0.00,0.05,0.86,-8.73,-6.59,19.84,-11.56,41.53,-400.00
T,S,0.04,0.00,0.85,-3.91,-1.04,25.76,-11.56,41.53,-400.00
T,S,-0.03,-0.13,0.88,-4.03,5.19,24.84,-11.56,41.53,-400.00
T,S,-0.05,-0.10,0.90,10.68,23.56,3.60,-11.25,41.16,-400.00
T,S,0.02,0.05,1.15,30.03,26.98,-8.42,-11.25,41.16,-400.00
T,S,0.03,0.08,1.13,16.30,20.45,1.83,-11.25,41.16,-400.00
T,S,0.02,0.03,1.08,10.44,0.18,7.81,-10.85,41.28,-400.00
T,S,0.01,-0.05,0.99,-1.10,-16.97,12.94,-10.85,41.28,-400.00
T,S,-0.01,-0.11,0.83,-12.02,-16.91,8.61,-10.85,41.28,-400.00
T,S,-0.01,-0.10,0.82,-8.61,-6.10,3.66,-10.85,41.28,-400.00
T,S,0.00,-0.05,0.90,5.00,18.86,-5.86,-10.93,41.99,-400.00
T,S,0.00,0.00,1.04,16.48,27.40,-7.08,-10.93,41.99,-400.00
T,S,-0.02,0.01,1.11,16.97,14.22,-4.76,-10.93,41.99,-400.00
T,S,-0.03,0.00,1.11,10.31,3.60,-4.03,-10.99,41.55,-400.00
T,S,-0.02,0.01,1.04,5.37,-17.27,-3.11,-10.99,41.55,-400.00
T,S,-0.03,0.02,0.92,-12.39,-21.42,-0.98,-10.99,41.55,-400.00
T,S,-0.02,0.02,0.85,-13.98,-14.34,0.92,-10.55,41.14,-400.00
T,S,-0.05,0.02,0.90,3.97,-6.59,-0.06,-10.55,41.14,-400.00
T,S,-0.03,0.04,0.85,2.99,-3.66,-1.95,-10.55,41.14,-400.00
T,S,-0.03,0.01,0.92,8.73,3.48,0.79,-10.55,41.14,-400.00
T,S,-0.03,0.00,0.92,4.15,5.62,0.24,-10.69,41.10,-400.00
T,S,-0.02,0.04,0.95,1.77,6.16,-4.64,-10.69,41.10,-400.00
T,S,-0.01,0.08,0.97,-2.81,9.58,-4.21,-10.69,41.10,-400.00
T,S,-0.00,0.07,0.98,2.87,6.84,-0.49,-11.08,41.15,-400.00
T,S,-0.00,0.03,1.01,4.46,2.93,0.55,-11.08,41.15,-400.00
T,S,-0.02,0.01,0.98,0.12,-2.69,-1.28,-11.08,41.15,-400.00
T,S,-0.02,0.05,0.94,-1.95,-2.81,-6.29,-11.08,41.15,-400.00
T,S,0.00,0.08,0.95,1.65,-1.83,-5.74,-11.35,41.06,-400.00
T,S,-0.00,0.07,0.92,6.23,0.73,-3.42,-11.35,41.06,-400.00
T,S,-0.03,0.03,0.99,11.60,8.91,-0.67,-11.35,41.06,-400.00
T,S,-0.00,0.04,1.03,11.78,12.45,-4.52,-11.30,41.50,-400.00
T,S,0.00,0.06,1.07,14.95,11.41,-4.88,-11.30,41.50,-400.00
T,S,0.01,0.05,1.04,11.47,2.99,-2.38,-11.30,41.50,-400.00
T,S,-0.02,0.02,1.06,7.87,-0.49,0.18,-11.30,41.50,-400.00
T,S,-0.02,0.02,1.04,-0.06,1.83,-1.28,-11.85,41.54,-400.00
T,S,-0.01,0.02,1.05,-0.49,-2.38,-1.71,-11.85,41.54,-400.00
T,S,-0.02,0.03,0.98,-2.14,-13.92,-1.46,-11.85,41.54,-400.00
T,S,-0.02,0.04,0.94,1.83,-14.65,-0.79,-12.12,41.38,-400.00
T,S,-0.02,0.05,0.92,-0.37,-9.64,2.01,-12.12,41.38,-400.00
T,S,-0.02,0.04,0.93,-0.37,3.11,4.09,-12.12,41.38,-400.00
T,S,-0.03,0.01,1.01,1.40,11.47,5.19,-11.67,41.30,-400.00
T,S,-0.02,0.00,1.05,4.82,3.30,3.42,-11.67,41.30,-400.00
T,S,-0.01,0.00,1.05,4.82,-1.53,2.81,-11.67,41.30,-400.00
T,S,-0.02,-0.00,1.00,3.54,-5.37,1.40,-11.67,41.30,-400.00
T,S,-0.01,0.02,1.01,8.36,-6.65,-1.71,-11.61,41.25,-400.00
T,S,-0.02,0.03,0.99,2.56,-5.25,-2.93,-11.61,41.25,-400.00
T,S,-0.02,0.06,0.95,4.58,-4.39,-2.69,-11.61,41.25,-400.00
T,S,-0.02,0.06,0.94,2.08,-3.11,0.98,-11.49,41.36,-400.00
T,S,-0.03,0.04,0.92,1.65,-2.26,3.17,-11.49,41.36,-400.00
T,S,-0.02,0.03,0.92,3.11,1.95,3.36,-11.49,41.36,-400.00
T,S,-0.01,0.00,0.94,7.63,4.70,4.03,-11.49,41.36,-400.00
T,S,-0.02,-0.01,0.95,7.69,5.00,2.08,-11.34,42.19,-400.00
T,S,-0.01,0.01,0.96,10.56,1.46,-1.77,-11.34,42.19,-400.00
T,S,-0.00,0.02,0.95,10.44,1.89,-1.89,-11.34,42.19,-400.00
T,S,0.00,0.03,0.96,13.85,7.32,-0.37,-11.84,41.46,-400.00
T,S,0.01,0.01,1.01,13.67,11.54,1.65,-11.84,41.46,-400.00
T,S,0.00,-0.01,1.01,13.06,9.89,1.83,-11.84,41.46,-400.00
T,S,-0.01,-0.02,1.04,15.56,9.09,-0.12,-11.36,41.60,-400.00
T,S,-0.02,0.01,1.07,13.37,4.09,-6.47,-11.36,41.60,-400.00
T,S,-0.02,0.07,1.04,5.37,-4.15,-7.57,-11.36,41.60,-400.00
T,S,-0.02,0.09,1.00,-0.18,-9.89,-2.50,-11.36,41.60,-400.00
T,S,-0.03,0.06,0.93,-1.34,-9.64,1.34,-11.38,40.63,-400.00
T,S,-0.03,0.01,0.93,-3.91,-1.04,5.86,-11.38,40.63,-400.00
T,S,-0.03,-0.01,0.92,-1.46,4.88,3.85,-11.38,40.63,-400.00
T,S,-0.02,0.00,0.97,3.85,6.96,2.50,-11.63,41.22,-400.00
T,S,-0.01,0.00,1.00,4.33,9.34,1.89,-11.63,41.22,-400.00
T,S,-0.01,-0.01,1.05,5.74,6.59,2.99,-11.63,41.22,-400.00
T,S,-0.01,-0.01,1.04,2.99,-1.71,1.28,-11.63,41.22,-400.00
T,S,-0.00,-0.01,1.02,3.78,-4.76,0.55,-10.82,41.08,-400.00
T,S,-0.01,-0.00,0.97,3.48,-6.10,-1.65,-10.82,41.08,-400.00
T,S,-0.02,0.02,0.95,9.70,-5.13,-3.97,-10.82,41.08,-400.00
T,S,-0.01,0.03,0.95,13.24,-1.77,-3.42,-11.18,41.74,-400.00
T,S,-0.01,0.05,0.96,8.97,0.06,-2.01,-11.18,41.74,-400.00
T,S,-0.01,0.02,0.98,10.01,3.42,1.77,-11.18,41.74,-400.00
T,S,-0.01,-0.01,1.02,12.76,3.97,2.01,-11.18,41.74,-400.00
T,S,-0.01,-0.01,1.03,10.74,1.40,0.61,-11.80,41.42,-400.00
T,S,-0.01,0.01,0.97,4.52,-5.62,-2.01,-11.80,41.42,-400.00
T,S,-0.01,0.02,0.96,5.80,-6.53,-0.85,-11.80,41.42,-400.00
T,S,-0.01,0.02,0.93,4.09,-2.26,1.65,-11.54,41.38,-400.00
T,S,-0.01,0.00,0.95,5.07,-0.12,2.62,-11.54,41.38,-400.00
T,S,-0.01,-0.01,0.95,3.36,2.32,3.23,-11.54,41.38,-400.00
T,S,-0.00,-0.02,0.97,1.83,1.59,3.05,-11.24,41.17,-400.00
T,S,-0.00,-0.02,0.95,15.44,-2.08,2.38,-11.24,41.17,-400.00
T,S,0.00,-0.03,0.93,1.77,-2.08,2.08,-11.24,41.17,-400.00
T,S,0.01,-0.03,0.93,2.99,3.23,1.77,-11.24,41.17,-400.00
T,S,-0.00,-0.03,0.97,0.92,10.62,1.10,-11.19,41.55,-400.00
T,S,0.00,-0.03,1.00,0.12,11.47,0.37,-11.19,41.55,-400.00
T,S,-0.01,-0.02,1.04,-2.50,5.92,-0.18,-11.19,41.55,-400.00
T,S,0.00,-0.01,1.00,-2.93,-2.81,-1.28,-11.28,41.27,-400.00
T,S,0.00,-0.01,0.98,0.55,-5.43,-0.18,-11.28,41.27,-400.00
T,S,-0.02,-0.02,0.97,-2.44,-3.42,-0.73,-11.28,41.27,-400.00
T,S,-0.02,0.00,0.96,-7.14,3.05,-3.85,-11.28,41.27,-400.00
T,S,-0.03,0.04,1.01,-1.53,5.13,-5.19,-11.15,41.64,-400.00
T,S,-0.03,0.06,1.00,14.89,-1.34,-4.09,-11.15,41.64,-400.00
T,S,-0.03,0.06,1.00,1.95,-2.08,-2.26,-11.15,41.64,-400.00
T,S,-0.04,0.03,1.00,0.73,-0.12,-0.31,-10.95,41.04,-400.00
T,S,-0.04,0.04,1.00,-1.53,0.49,-1.40,-10.95,41.04,-400.00
T,S,-0.03,0.05,0.98,-2.62,-1.40,-1.83,-10.95,41.04,-400.00
T,S,-0.01,0.04,0.99,2.56,-3.48,1.46,-10.72,40.59,-400.00
T,S,-0.03,-0.01,0.96,1.46,-0.12,3.36,-10.72,40.59,-400.00
T,S,-0.03,-0.02,0.96,6.23,2.75,-2.69,-10.72,40.59,-400.00
T,S,-0.02,0.03,0.99,7.69,2.08,-4.88,-10.72,40.59,-400.00
T,S,-0.02,0.05,0.96,4.27,-0.37,-4.21,-10.96,41.08,-400.00
T,S,-0.03,0.04,0.96,7.93,-2.69,-1.71,-10.96,41.08,-400.00
T,S,-0.04,0.03,0.95,7.14,-0.37,-1.65,-10.96,41.08,-400.00
T,S,0.09,-0.02,0.92,9.34,1.16,-2.69,-11.16,40.78,-400.00
T,S,-0.24,-0.06,1.07,52.06,14.53,-3.78,-11.16,40.78,-400.00
T,S,-0.00,0.11,0.96,-10.13,-4.39,-17.27,-11.16,40.78,-400.00
T,S,0.01,0.11,0.83,-21.97,-3.78,-7.39,-11.16,40.78,-400.00
T,S,-0.01,0.03,1.06,4.27,2.08,6.96,-11.19,41.05,-400.00
T,S,-0.03,-0.03,0.89,-24.84,2.08,7.14,-11.19,41.05,-400.00
T,S,-0.03,-0.03,0.95,1.59,4.70,0.00,-11.19,41.05,-400.00
T,S,-0.01,0.01,1.00,-2.62,3.60,-2.56,-11.06,41.17,-400.00
T,S,-0.01,0.03,1.00,-2.20,0.37,-2.20,-11.06,41.17,-400.00
T,S,-0.03,0.02,0.96,-4.52,-3.05,-0.43,-11.06,41.17,-400.00
T,S,-0.03,0.02,0.93,13.79,-2.38,-2.69,-11.06,41.17,-400.00
T,S,-0.02,0.03,0.95,8.54,-0.43,-3.97,-10.78,40.66,-400.00
T,S,-0.02,0.04,0.98,10.93,4.46,-4.27,-10.78,40.66,-400.00
T,S,-0.03,0.05,1.00,3.91,5.68,-2.69,-10.78,40.66,-400.00
T,S,-0.03,0.04,0.99,1.16,3.17,-1.71,-10.95,40.25,-400.00
T,S,-0.03,0.03,1.00,2.87,-2.14,-0.18,-10.95,40.25,-400.00
T,S,-0.03,0.02,0.96,0.24,-0.61,0.49,-10.95,40.25,-400.00
T,S,-0.03,0.02,0.96,3.11,3.11,-0.79,-11.16,40.26,-400.00
T,S,-0.01,0.02,0.99,7.20,5.13,-1.10,-11.16,40.26,-400.00
T,S,-0.02,0.02,1.03,6.77,6.77,-0.92,-11.16,40.26,-400.00
T,S,-0.03,0.03,1.01,4.94,1.65,-1.71,-11.16,40.26,-400.00
T,S,-0.02,0.04,1.01,8.12,-2.99,-2.38,-11.47,40.53,-400.00
T,S,-0.01,0.05,0.99,6.47,-3.11,-1.46,-11.47,40.53,-400.00
T,S,-0.01,0.02,0.96,4.64,0.24,1.46,-11.47,40.53,-400.00
T,S,-0.02,-0.00,1.00,5.92,4.52,1.16,-11.60,39.98,-400.00
T,S,-0.02,0.00,0.98,3.60,4.27,-0.49,-11.60,39.98,-400.00
T,S,-0.01,0.02,1.03,9.70,1.04,-2.62,-11.60,39.98,-400.00
T,S,-0.01,0.03,1.00,0.98,-3.11,-1.16,-11.60,39.98,-400.00
T,S,-0.01,0.02,0.98,1.28,-6.71,-0.85,-11.30,40.56,-400.00
T,S,-0.01,0.02,0.98,-1.22,-7.39,-1.10,-11.30,40.56,-400.00
T,S,-0.03,0.04,0.94,-7.93,-7.45,-2.75,-11.30,40.56,-400.00
T,S,-0.02,0.05,0.93,-1.53,-7.57,-3.36,-11.13,40.75,-400.00
T,S,-0.02,0.05,0.93,1.83,-6.35,-1.28,-11.13,40.75,-400.00
T,S,-0.04,0.04,0.89,1.71,-4.58,-0.73,-11.13,40.75,-400.00
T,S,-0.03,0.03,0.92,8.42,4.52,-1.04,-11.21,40.93,-400.00
T,S,-0.03,0.03,0.97,8.79,11.54,-0.24,-11.21,40.93,-400.00
T,S,-0.02,0.02,1.00,10.31,12.39,-0.37,-11.21,40.93,-400.00
T,S,-0.01,0.02,1.08,8.85,9.83,-0.85,-11.21,40.93,-400.00
T,S,-0.03,0.02,1.04,0.00,0.67,-0.73,-11.84,40.75,-400.00
T,S,-0.03,0.03,1.03,0.49,-7.87,-2.20,-11.84,40.75,-400.00
T,S,-0.02,0.04,0.98,-2.32,-8.42,-1.53,-11.84,40.75,-400.00
T,S,-0.03,0.04,0.94,-4.82,-4.58,0.92,-11.43,40.21,-400.00
T,S,-0.03,0.03,0.93,-2.20,0.18,0.85,-11.43,40.21,-400.00
T,S,-0.03,0.03,0.95,3.30,4.39,0.06,-11.43,40.21,-400.00
T,S,-0.03,0.03,0.97,6.41,5.07,-0.12,-11.43,40.21,-400.00
T,S,-0.02,0.03,0.99,10.13,2.93,-1.89,-11.49,40.66,-400.00
T,S,-0.02,0.04,0.99,4.94,2.20,-1.83,-11.49,40.66,-400.00
T,S,-0.02,0.04,0.98,2.01,1.28,-0.92,-11.49,40.66,-400.00
T,S,-0.03,0.03,0.97,4.58,-1.71,-0.06,-11.50,41.17,-400.00
T,S,-0.02,0.03,0.97,3.97,-0.98,-0.73,-11.50,41.17,-400.00
T,S,-0.02,0.03,0.96,2.93,1.65,-1.10,-11.50,41.17,-400.00
T,S,-0.02,0.04,0.99,3.97,3.11,-1.04,-11.50,41.17,-400.00
T,S,-0.02,0.03,0.99,1.22,3.78,-0.85,-11.23,41.02,-400.00
T,S,-0.02,0.03,1.03,4.46,2.50,-1.10,-11.23,41.02,-400.00
T,S,-0.02,0.03,1.02,2.44,-1.71,-1.77,-11.23,41.02,-400.00
T,S,-0.02,0.04,1.02,3.42,-3.72,-2.26,-11.36,40.30,-400.00
T,S,-0.02,0.05,0.99,-3.30,-4.76,-1.28,-11.36,40.30,-400.00
T,S,-0.03,0.04,0.96,-1.89,-3.72,0.67,-11.36,40.30,-400.00
T,S,-0.03,0.04,0.96,0.24,-2.56,0.61,-11.55,40.93,-400.00
T,S,-0.03,0.04,0.95,2.75,0.18,-0.73,-11.55,40.93,-400.00
T,S,-0.02,0.04,0.98,8.48,2.99,-1.46,-11.55,40.93,-400.00
T,S,-0.03,0.04,0.99,4.52,2.99,-1.04,-11.55,40.93,-400.00
T,S,-0.03,0.05,0.99,3.97,1.53,-1.04,-11.11,40.86,-400.00
T,S,-0.03,0.05,0.99,3.78,-0.61,-0.31,-11.11,40.86,-400.00
T,S,-0.03,0.03,0.97,5.19,-1.59,0.18,-11.11,40.86,-400.00
T,S,-0.03,0.03,0.97,4.21,0.31,-0.31,-11.24,40.77,-400.00
T,S,-0.03,0.03,0.96,5.55,1.40,-1.28,-11.24,40.77,-400.00
T,S,-0.02,0.04,0.99,7.75,4.64,-1.46,-11.24,40.77,-400.00
T,S,-0.02,0.04,1.02,8.48,4.70,-0.43,-11.24,40.77,-400.00
T,S,-0.02,0.03,1.01,5.74,2.08,-0.06,-11.07,41.30,-400.00
T,S,-0.02,0.03,1.00,3.78,-2.81,-0.79,-11.07,41.30,-400.00
T,S,-0.02,0.04,0.95,-0.55,-4.03,-1.65,-11.07,41.30,-400.00
T,S,-0.03,0.05,0.96,4.33,-2.38,-1.34,-10.96,40.81,-400.00
T,S,-0.02,0.06,0.96,1.59,-0.73,-0.67,-10.96,40.81,-400.00
T,S,-0.03,0.05,0.95,0.85,2.50,1.40,-10.96,40.81,-400.00
T,S,-0.02,0.03,0.99,3.05,5.13,1.34,-11.57,41.32,-400.00
T,S,-0.02,0.03,0.99,2.08,5.19,0.49,-11.57,41.32,-400.00
T,S,-0.02,0.02,1.00,4.33,3.48,-0.18,-11.57,41.32,-400.00
T,S,-0.03,0.02,0.99,6.35,-1.46,-1.53,-11.57,41.32,-400.00
T,S,-0.03,0.04,0.95,5.86,-2.14,-2.56,-11.17,40.92,-400.00
T,S,-0.03,0.04,0.97,6.96,0.31,-2.62,-11.17,40.92,-400.00
T,S,-0.03,0.05,0.97,3.48,4.64,-2.01,-11.17,40.92,-400.00
T,S,-0.03,0.05,1.00,4.21,5.62,-0.98,-11.85,41.21,-400.00
T,S,-0.02,0.05,1.02,1.34,4.88,0.73,-11.85,41.21,-400.00
T,S,-0.03,0.03,1.01,0.73,3.85,0.92,-11.85,41.21,-400.00
T,S,-0.03,0.02,1.02,4.21,0.31,-0.92,-11.85,41.21,-400.00
T,S,-0.03,0.04,1.00,1.04,-4.94,-3.60,-10.88,40.59,-400.00
T,S,-0.03,0.05,0.98,-2.62,-6.96,-2.81,-10.88,40.59,-400.00
T,S,-0.03,0.06,0.93,-3.48,-5.98,-1.46,-10.88,40.59,-400.00
T,S,-0.05,0.04,0.94,0.55,-0.06,-0.12,-11.87,40.75,-400.00
T,S,-0.05,0.05,0.97,1.65,3.05,-1.22,-11.87,40.75,-400.00
T,S,-0.05,0.07,0.98,1.28,2.44,-1.46,-11.87,40.75,-400.00
T,S,-0.03,0.07,0.98,0.67,-1.89,0.24,-11.87,40.75,-400.00
T,S,-0.04,0.06,0.93,0.61,-3.05,3.05,-11.32,40.44,-400.00
T,S,-0.04,0.05,0.96,5.55,1.65,3.36,-11.32,40.44,-400.00
T,S,-0.03,0.04,0.96,4.58,4.21,3.30,-11.32,40.44,-400.00
T,S,-0.04,0.03,1.01,5.92,3.42,2.01,-10.94,40.72,-400.00
T,S,-0.03,0.05,0.98,1.04,-3.36,0.43,-10.94,40.72,-400.00
T,S,-0.03,0.06,0.97,-1.34,-4.82,1.83,-10.94,40.72,-400.00
T,S,-0.04,0.05,0.92,-0.98,-3.42,1.95,-11.36,40.70,-400.00
T,S,-0.04,0.05,0.95,6.10,2.50,0.37,-11.36,40.70,-400.00
T,S,-0.04,0.07,0.98,7.69,5.92,-0.98,-11.36,40.70,-400.00
T,S,-0.04,0.07,1.00,9.46,5.68,-0.79,-11.36,40.70,-400.00
T,S,-0.04,0.07,1.01,5.25,0.98,0.49,-11.15,40.22,-400.00
T,S,-0.04,0.06,0.93,2.81,-6.04,1.04,-11.15,40.22,-400.00
T,S,-0.04,0.06,0.92,7.45,-1.83,0.24,-11.15,40.22,-400.00
T,S,-0.03,0.06,0.92,6.47,2.93,0.49,-11.25,40.33,-400.00
T,S,-0.03,0.05,0.97,9.09,10.50,1.10,-11.25,40.33,-400.00
T,S,-0.03,0.05,1.01,5.49,9.58,1.16,-11.25,40.33,-400.00
T,S,-0.02,0.05,1.01,3.36,1.77,1.28,-11.25,40.33,-400.00
T,S,-0.01,0.05,0.98,1.40,-1.34,2.69,-11.17,40.16,-400.00
T,S,-0.00,0.01,0.97,-0.18,-0.79,5.62,-11.17,40.16,-400.00
T,S,-0.02,-0.02,0.92,0.79,4.46,2.14,-11.17,40.16,-400.00
T,S,-0.02,-0.01,0.96,9.16,6.29,-1.89,-11.66,39.79,-400.00
T,S,-0.00,0.05,0.99,10.80,8.54,-5.86,-11.66,39.79,-400.00
T,S,-0.00,0.08,1.04,10.68,7.20,-3.17,-11.66,39.79,-400.00
T,S,-0.01,0.05,1.02,5.13,1.65,1.04,-11.58,40.33,-400.00
T,S,-0.02,0.03,1.02,5.19,-0.43,2.08,-11.58,40.33,-400.00
T,S,-0.02,0.01,0.98,3.48,-3.42,0.85,-11.58,40.33,-400.00
T,S,-0.02,0.03,0.96,5.19,-1.34,-2.56,-11.58,40.33,-400.00
T,S,-0.02,0.05,0.97,5.80,4.39,-2.20,-11.67,40.43,-400.00
T,S,-0.02,0.05,1.00,5.74,6.10,-0.98,-11.67,40.43,-400.00
T,S,-0.03,0.04,1.03,2.26,4.52,0.18,-11.67,40.43,-400.00
T,S,-0.03,0.05,1.02,1.10,-2.01,-0.73,-11.00,40.66,-400.00
T,S,-0.03,0.05,0.99,0.85,-4.76,-0.61,-11.00,40.66,-400.00
T,S,-0.04,0.05,0.93,3.91,-5.43,0.06,-11.00,40.66,-400.00
T,S,-0.03,0.04,0.95,9.58,2.56,0.06,-11.00,40.66,-400.00
T,S,-0.03,0.04,0.99,8.97,9.77,-0.37,-11.90,40.37,-400.00
T,S,-0.02,0.04,1.03,9.16,9.16,-0.61,-11.90,40.37,-400.00
T,S,-0.02,0.04,1.01,3.54,3.05,-0.37,-11.90,40.37,-400.00
T,S,-0.02,0.04,1.00,6.41,-3.66,-1.10,-11.32,40.45,-400.00
T,S,-0.02,0.04,0.97,5.68,-6.16,-1.77,-11.32,40.45,-400.00
T,S,-0.01,0.05,0.94,5.43,-4.58,-1.22,-11.32,40.45,-400.00
T,S,-0.02,0.04,0.94,1.34,1.04,-0.06,-11.32,40.45,-400.00
T,S,-0.02,0.03,0.94,0.79,2.99,0.18,-11.67,40.91,-400.00
T,S,-0.01,0.03,0.95,1.77,2.56,-0.06,-11.67,40.91,-400.00
T,S,0.00,0.02,0.94,2.32,0.98,-0.49,-11.67,40.91,-400.00
T,S,-0.01,0.01,0.94,4.52,1.83,-1.16,-11.45,40.72,-400.00
T,State changed to: T
T,T,-0.02,0.01,0.94,2.01,4.39,-3.11,-11.45,40.72,-400.00
T,T,-0.02,0.02,0.95,1.89,5.00,-4.46,-11.45,40.72,-400.00
T,T,-0.02,0.05,0.96,-1.16,3.60,-4.88,-11.01,41.30,-400.00
T,T,-0.02,0.06,0.95,-0.73,1.83,-3.85,-11.01,41.30,-400.00
T,T,-0.01,0.07,0.96,-0.73,5.19,-0.98,-11.01,41.30,-400.00
T,T,0.00,0.03,0.94,0.61,7.45,1.16,-11.01,41.30,-400.00
T,T,-0.01,-0.01,1.05,2.38,14.65,0.12,-11.21,41.31,-400.00
T,T,-0.00,0.03,1.07,-0.67,14.34,-5.98,-11.21,41.31,-400.00
T,T,0.00,0.06,1.07,4.03,7.93,-6.59,-11.21,41.31,-400.00
T,T,-0.01,0.09,1.13,9.03,1.77,-5.00,-11.60,41.06,-400.00
T,T,-0.02,0.09,1.14,-5.86,8.61,-0.85,-11.60,41.06,-400.00
T,T,0.01,0.07,1.20,-10.38,11.47,3.11,-11.60,41.06,-400.00
T,T,0.01,0.05,1.20,-11.54,7.81,5.19,-11.60,41.06,-400.00
T,T,0.01,0.02,1.21,-6.04,4.52,6.77,-11.63,40.95,-400.00
T,T,0.03,0.02,1.36,-0.18,8.12,5.37,-11.63,40.95,-400.00
T,T,0.02,0.04,1.37,-31.25,3.60,4.70,-11.63,40.95,-400.00
T,T,-0.01,0.08,1.29,-35.77,-0.85,3.78,-11.00,40.36,-400.00
T,T,-0.02,0.11,1.21,-19.71,-13.18,2.32,-11.00,40.36,-400.00
T,T,0.01,0.09,1.21,1.77,-13.73,7.39,-11.00,40.36,-400.00
T,T,0.01,0.07,1.18,1.83,-7.32,12.94,-10.51,39.33,-400.00
T,T,-0.00,0.01,1.18,16.30,8.18,12.76,-10.51,39.33,-400.00
T,T,0.05,-0.01,1.37,35.40,23.13,8.12,-10.51,39.33,-400.00
T,T,0.02,-0.01,1.43,31.19,18.25,1.83,-10.51,39.33,-400.00
T,T,0.02,0.01,1.46,31.25,8.54,-3.23,-9.05,38.39,-400.00
T,T,0.01,0.12,1.50,8.85,-8.91,-7.39,-9.05,38.39,-400.00
T,T,0.01,0.18,1.37,-22.64,-23.01,-2.81,-9.05,38.39,-400.00
T,T,0.00,0.16,1.25,-20.81,-38.57,7.93,-8.18,37.26,-400.00
T,T,-0.01,0.09,1.07,-2.50,-40.83,10.13,-8.18,37.26,-400.00
T,T,-0.02,0.07,1.10,11.47,-15.99,9.83,-8.18,37.26,-400.00
T,T,0.00,0.09,1.05,10.74,23.74,7.57,-8.18,37.26,-400.00
T,T,0.01,0.08,1.16,38.33,33.87,4.64,-6.04,37.54,-400.00
T,T,0.00,0.07,1.52,73.43,26.18,0.73,-6.04,37.54,-400.00
T,T,0.01,0.12,1.41,20.45,-15.81,-4.27,-6.04,37.54,-400.00
T,T,-0.02,0.15,1.07,10.62,-58.11,-3.91,-4.60,36.73,-400.00
T,T,-0.03,0.13,0.89,21.97,-66.04,-2.99,-4.60,36.73,-400.00
T,T,-0.04,0.10,0.79,59.08,-47.91,0.61,-4.60,36.73,-400.00
T,T,-0.03,0.06,0.83,46.63,-6.10,4.15,-4.60,36.73,-400.00
T,T,-0.03,0.02,0.87,32.29,17.76,6.10,-3.72,37.40,-400.00
T,T,-0.04,-0.04,1.01,32.23,13.98,4.94,-3.72,37.40,-400.00
T,T,-0.07,-0.02,1.07,20.63,-5.62,-2.01,-3.72,37.40,-400.00
T,T,-0.04,0.01,0.84,12.57,-18.62,-6.23,-3.83,37.01,-400.00
T,T,-0.01,0.01,0.88,30.09,-0.55,0.31,-3.83,37.01,-400.00
T,T,-0.04,-0.04,0.97,18.98,0.31,3.78,-3.83,37.01,-400.00
T,T,-0.03,-0.13,0.73,14.83,-1.04,4.88,-2.65,36.80,-400.00
T,T,-0.06,-0.15,0.85,71.59,13.00,-5.00,-2.65,36.80,-400.00
T,T,-0.03,-0.11,0.93,83.98,27.04,-14.34,-2.65,36.80,-400.00
T,T,0.02,-0.01,1.26,84.35,37.60,-19.59,-2.65,36.80,-400.00
T,T,-0.02,-0.05,1.07,25.15,-7.20,-8.18,-3.03,38.46,-400.00
T,T,-0.07,-0.11,0.91,22.89,-46.02,-4.70,-3.03,38.46,-400.00
T,T,-0.07,-0.17,0.78,28.56,-38.33,-7.57,-3.03,38.46,-400.00
T,T,-0.15,-0.10,0.77,-0.31,-2.44,-16.05,-3.00,38.85,-400.00
T,T,-0.09,0.08,0.77,-14.53,19.53,-24.41,-3.00,38.85,-400.00
T,T,-0.07,0.11,0.75,-4.46,25.27,-9.46,-3.00,38.85,-400.00
T,T,0.00,-0.04,0.98,41.69,27.40,3.60,-3.00,38.85,-400.00
T,T,0.00,-0.28,1.10,14.16,22.16,10.56,-2.55,39.17,-400.00
T,T,-0.02,-0.38,0.89,11.35,-0.24,-9.28,-2.55,39.17,-400.00
T,T,-0.01,-0.34,0.95,36.99,-7.69,-24.84,-2.55,39.17,-400.00
T,T,-0.01,-0.13,0.86,29.91,-10.50,-49.62,-3.81,40.14,-400.00
T,T,-0.04,0.01,0.75,18.55,-6.65,-47.55,-3.81,40.14,-400.00
T,T,-0.02,0.00,0.70,34.42,8.97,-31.25,-3.81,40.14,-400.00
T,T,-0.07,-0.15,0.84,62.44,25.51,-25.88,-4.63,41.59,-400.00
T,T,-0.00,-0.18,1.11,74.28,32.17,-29.36,-4.63,41.59,-400.00
T,T,0.05,-0.16,1.11,36.56,4.46,-29.24,-4.63,41.59,-400.00
T,T,0.05,-0.20,1.07,17.94,-24.54,-29.60,-4.63,41.59,-400.00
T,T,-0.01,-0.22,0.81,-16.60,-33.63,-35.28,-5.27,41.63,-400.00
T,T,-0.01,-0.16,0.72,3.11,-25.88,-47.18,-5.27,41.63,-400.00
T,T,-0.07,-0.09,0.77,15.56,-9.52,-50.42,-5.27,41.63,-400.00
T,T,-0.11,-0.08,0.68,15.08,-13.92,-50.78,-5.83,42.74,-400.00
T,T,-0.07,-0.10,0.56,43.46,-25.39,-48.40,-5.83,42.74,-400.00
T,T,-0.03,-0.19,0.67,56.88,-1.59,-38.51,-5.83,42.74,-400.00
T,T,-0.04,-0.21,0.71,25.57,28.38,-35.22,-5.83,42.74,-400.00
T,T,-0.03,-0.20,0.85,19.53,29.79,-36.25,-6.73,43.31,-400.00
T,T,0.03,-0.23,1.02,11.11,26.79,-34.12,-6.73,43.31,-400.00
T,T,-0.02,-0.28,1.21,26.25,15.08,-38.45,-6.73,43.31,-400.00
T,T,-0.06,-0.23,1.27,27.71,-22.77,-58.59,-7.69,43.31,-400.00
T,T,-0.03,-0.09,1.01,24.78,-48.83,-59.20,-7.69,43.31,-400.00
T,T,-0.05,-0.12,0.84,32.96,-69.34,-43.27,-7.69,43.31,-400.00
T,T,-0.13,-0.19,0.71,25.63,-36.44,-34.06,-7.69,43.31,-400.00
T,T,-0.14,-0.20,0.79,33.33,-20.32,-36.13,-8.31,43.87,-400.00
T,T,-0.18,-0.20,0.96,34.67,-2.81,-40.95,-8.31,43.87,-400.00
T,T,-0.18,-0.16,1.16,39.67,-7.02,-44.01,-8.31,43.87,-400.00
T,T,-0.19,-0.17,1.10,29.36,-56.09,-38.27,-9.56,43.41,-400.00
T,T,-0.26,-0.21,0.93,24.05,-73.79,-37.84,-9.56,43.41,-400.00
T,T,-0.30,-0.14,0.63,11.35,-69.64,-41.56,-9.56,43.41,-400.00
T,T,-0.37,-0.01,0.55,27.47,-49.74,-40.41,-9.61,44.18,-400.00
T,T,-0.34,0.04,0.57,29.11,-29.11,-25.57,-9.61,44.18,-400.00
T,T,-0.26,-0.03,0.67,12.27,-16.42,-9.95,-9.61,44.18,-400.00
T,T,-0.20,-0.31,0.68,-11.23,-11.05,11.35,-9.61,44.18,-400.00
T,T,-0.25,-0.45,0.76,-9.16,-0.67,6.47,-9.50,44.48,-400.00
T,T,-0.30,-0.40,0.89,3.23,10.86,-6.65,-9.50,44.48,-400.00
T,T,-0.21,-0.10,1.40,2.69,7.63,-32.53,-9.50,44.48,-400.00
T,T,-0.00,-0.07,1.34,-88.62,-94.67,-8.30,-9.46,45.28,-400.00
T,T,0.03,-0.25,1.19,-202.58,-195.98,40.83,-9.46,45.28,-400.00
T,T,0.01,-0.63,0.16,-221.07,-211.49,56.64,-9.46,45.28,-400.00
T,T,-0.21,-0.79,-0.10,-64.88,-174.26,56.64,-9.46,45.28,-400.00
T,T,-0.31,-0.86,0.12,42.72,-115.17,0.06,-7.25,45.23,-400.00
T,T,-0.37,-0.69,0.15,23.13,-35.22,-64.88,-7.25,45.23,-400.00
T,T,-0.46,-0.26,0.35,23.74,3.11,-76.35,-7.25,45.23,-400.00
T,T,-0.44,-0.11,0.74,-1.95,46.45,-57.62,-8.24,46.48,-400.00
T,T,-0.44,-0.12,0.89,-41.20,3.05,-13.37,-8.24,46.48,-400.00
T,T,-0.49,-0.22,0.50,-46.94,-33.02,2.87,-8.24,46.48,-400.00
T,T,-0.43,-0.36,0.54,72.27,-57.13,2.81,-11.36,46.48,-400.00
T,T,-0.63,-0.38,0.56,49.74,-5.43,-14.40,-9.55,46.48,-400.00
T,T,-0.65,-0.29,0.62,28.14,65.55,-42.11,-9.55,46.48,-400.00
T,T,-0.57,-0.04,1.05,27.53,66.96,-46.20,-9.55,46.48,-400.00
T,T,-0.56,0.08,1.23,-11.29,21.79,-35.83,-10.44,45.97,-400.00
T,T,-0.60,0.06,1.07,-11.60,-17.15,-18.07,-10.44,45.97,-400.00
T,T,-0.64,0.03,1.04,26.86,-60.06,-7.39,-10.44,45.97,-400.00
T,T,-0.57,-0.04,0.77,9.58,-79.83,-3.11,-10.34,46.57,-400.00
T,T,-0.55,-0.19,0.47,-7.57,-75.93,11.29,-10.34,46.57,-400.00
T,T,-0.56,-0.35,0.41,-2.32,-22.16,14.95,-10.34,46.57,-400.00
T,T,-0.60,-0.37,0.45,3.66,4.21,8.24,-10.34,46.57,-400.00
T,T,-0.62,-0.29,0.64,31.92,37.84,-17.76,-10.45,46.30,-400.00
T,T,-0.60,-0.11,0.94,72.63,41.44,-37.54,-10.45,46.30,-400.00
T,T,-0.56,-0.03,1.06,65.00,15.32,-34.55,-10.45,46.30,-400.00
T,T,-0.62,0.00,1.02,54.87,-2.32,-26.73,-11.13,46.13,-400.00
T,T,-0.63,-0.03,0.93,39.12,-29.54,-12.63,-11.13,46.13,-400.00
T,T,-0.64,-0.06,0.67,-11.96,-43.03,-1.10,-11.13,46.13,-400.00
T,T,-0.58,-0.10,0.53,-24.05,-23.80,13.00,-11.13,46.13,-400.00
T,T,-0.53,-0.21,0.61,-8.36,0.31,17.09,-10.82,45.95,-400.00
T,T,-0.61,-0.33,0.78,5.07,35.77,15.69,-10.82,45.95,-400.00
T,T,-0.64,-0.28,1.05,23.80,31.56,-5.19,-10.82,45.95,-400.00
T,T,-0.59,-0.20,1.11,21.36,19.41,-13.92,-11.19,45.76,-400.00
T,T,-0.51,-0.11,1.07,8.73,-13.55,-11.23,-11.19,45.76,-400.00
T,T,-0.56,-0.16,0.81,1.40,-43.64,-0.79,-11.19,45.76,-400.00
T,T,-0.59,-0.17,0.76,3.42,-34.61,-1.65,-11.02,46.08,-400.00
T,T,-0.63,-0.15,0.71,-9.83,-25.70,-1.65,-11.02,46.08,-400.00
T,T,-0.61,-0.14,0.65,-19.65,-24.84,5.00,-11.02,46.08,-400.00
T,T,-0.59,-0.21,0.53,-24.05,-22.16,14.04,-11.02,46.08,-400.00
T,T,-0.60,-0.24,0.47,10.44,0.98,8.61,-10.66,46.04,-400.00
T,T,-0.57,-0.25,0.65,27.22,15.93,2.32,-10.66,46.04,-400.00
T,T,-0.57,-0.25,0.83,28.02,31.43,-1.59,-10.66,46.04,-400.00
T,T,-0.57,-0.29,0.91,34.42,18.98,1.34,-9.89,46.13,-400.00
T,T,-0.59,-0.30,0.99,36.50,6.65,-0.55,-9.89,46.13,-400.00
T,T,-0.60,-0.21,0.78,7.39,-16.97,-11.29,-9.89,46.13,-400.00
T,T,-0.61,-0.11,0.69,21.18,-19.41,-14.77,-9.89,46.13,-400.00
T,T,-0.59,-0.10,0.70,17.09,-9.64,-1.40,-10.17,46.73,-400.00
T,T,-0.60,-0.20,0.67,5.31,-6.16,7.75,-10.17,46.73,-400.00
T,T,-0.58,-0.36,0.63,-2.01,3.05,15.14,-10.17,46.73,-400.00
T,T,-0.57,-0.38,0.80,7.87,19.10,1.71,-10.21,46.15,-400.00
T,T,-0.58,-0.32,0.80,13.67,26.12,-17.33,-10.21,46.15,-400.00
T,T,-0.63,-0.15,0.97,24.90,19.59,-23.01,-10.21,46.15,-400.00
T,T,-0.67,0.00,0.93,8.73,-10.68,-20.81,-10.21,46.15,-400.00
T,T,-0.63,-0.01,0.70,-19.71,-42.24,-1.28,-11.46,46.03,-400.00
T,T,-0.59,-0.11,0.52,-29.36,-49.50,12.94,-11.46,46.03,-400.00
T,T,-0.50,-0.34,0.47,-17.64,-17.58,33.33,-11.46,46.03,-400.00
T,T,-0.50,-0.47,0.61,-3.23,44.07,27.47,-10.34,45.41,-400.00
T,T,-0.55,-0.47,1.02,37.72,75.56,-6.10,-10.34,45.41,-400.00
T,T,-0.62,-0.26,1.18,44.62,59.27,-25.63,-10.34,45.41,-400.00
T,T,-0.59,-0.03,1.20,30.88,-18.37,-33.26,-11.34,45.95,-400.00
T,T,-0.52,-0.10,0.75,-22.95,-86.61,1.28,-11.34,45.95,-400.00
T,T,-0.51,-0.23,0.47,-38.88,-76.54,28.81,-11.34,45.95,-400.00
T,T,-0.60,-0.40,0.28,-21.42,-42.36,26.37,-11.34,45.95,-400.00
T,T,-0.63,-0.34,0.38,9.09,33.57,-1.65,-10.23,45.86,-400.00
T,T,-0.63,-0.15,0.74,44.01,56.34,-17.76,-10.23,45.86,-400.00
T,T,-0.61,-0.10,0.81,38.15,38.45,-13.06,-10.23,45.86,-400.00
T,T,-0.60,-0.13,0.74,12.57,-10.86,9.16,-10.40,46.24,-400.00
T,T,-0.68,-0.19,0.57,-15.93,-14.28,15.01,-10.40,46.24,-400.00
T,T,-0.69,-0.14,0.52,0.00,7.02,1.83,-10.40,46.24,-400.00
T,T,-0.76,0.01,0.61,13.31,10.56,-1.28,-10.40,46.24,-400.00
T,T,-0.64,0.04,0.56,-8.24,-5.74,5.55,-10.24,45.62,-400.00
T,T,-0.47,-0.10,0.38,-37.54,-18.31,46.39,-10.24,45.62,-400.00
T,T,-0.43,-0.26,0.34,-41.26,16.54,75.99,-10.24,45.62,-400.00
T,T,-0.48,-0.48,0.36,-29.72,46.33,76.11,-8.90,46.07,-400.00
T,T,-0.74,-0.57,0.69,19.23,89.29,33.26,-8.90,46.07,-400.00
T,T,-0.77,-0.17,0.91,42.66,65.86,-27.77,-8.90,46.07,-400.00
T,T,-0.67,-0.00,0.97,34.79,31.68,-38.57,-9.13,45.58,-400.00
T,T,-0.31,0.03,0.59,-25.33,-17.58,-6.16,-9.13,45.58,-400.00
T,T,-0.19,-0.25,0.41,-28.63,3.11,60.91,-9.13,45.58,-400.00
T,T,-0.35,-0.38,0.50,-10.80,64.33,84.29,-9.13,45.58,-400.00
T,T,-0.69,-0.57,0.64,4.09,87.59,56.70,-8.63,45.30,-400.00
T,T,-0.38,-0.31,0.90,21.73,84.35,-1.71,-8.63,45.30,-400.00
T,T,-0.31,-0.20,1.14,3.17,69.09,14.34,-8.63,45.30,-400.00
T,T,-0.39,-0.27,1.11,-18.37,53.65,35.64,-8.20,44.64,-400.00
T,T,-0.36,-0.44,1.14,-9.34,41.81,37.29,-8.20,44.64,-400.00
T,T,-0.33,-0.53,1.15,-13.00,31.37,33.45,-8.20,44.64,-400.00
T,T,-0.35,-0.55,1.18,-18.68,49.13,20.69,-8.20,44.64,-400.00
T,T,-0.33,-0.51,1.31,-12.08,66.16,9.77,-8.00,44.89,-400.00
T,T,-0.17,-0.42,1.60,5.92,100.16,-8.12,-8.00,44.89,-400.00
T,T,-0.20,-0.39,1.93,54.26,108.03,-18.98,-8.00,44.89,-400.00
T,T,-0.30,-0.23,2.13,68.60,54.38,-46.63,-8.73,45.04,-400.00
T,T,-0.32,-0.06,2.06,54.32,7.39,-59.57,-8.73,45.04,-400.00
T,T,-0.16,0.11,1.75,16.66,-85.14,-53.47,-8.73,45.04,-400.00
T,T,-0.04,-0.04,1.27,-21.97,-124.33,-2.08,-8.73,45.04,-400.00
T,T,-0.08,-0.23,1.17,-26.67,-109.50,31.19,-9.16,44.74,-400.00
T,T,-0.27,-0.50,0.95,-26.86,-104.43,23.44,-9.16,44.74,-400.00
T,T,-0.40,-0.48,0.83,5.98,-103.64,-23.68,-9.16,44.74,-400.00
T,T,-0.35,-0.29,0.69,48.34,-111.02,-50.90,-8.09,44.95,-400.00
T,T,-0.32,-0.19,0.70,53.47,-122.07,-53.77,-8.09,44.95,-400.00
T,T,-0.38,-0.07,0.26,-0.43,-124.69,-53.41,-8.09,44.95,-400.00
T,T,-0.32,-0.04,0.29,16.91,-65.49,-34.73,-9.83,45.41,-400.00
T,T,-0.38,-0.12,0.65,15.14,38.70,-17.40,-9.83,45.41,-400.00
T,T,-0.53,-0.16,0.89,14.40,64.94,-17.03,-9.83,45.41,-400.00
T,T,-0.48,-0.23,1.18,30.88,-0.18,-18.80,-9.83,45.41,-400.00
T,T,-0.41,-0.37,0.87,24.23,-149.41,-17.70,-9.84,45.61,-400.00
T,T,-0.42,-0.39,0.57,-22.34,-201.11,-23.62,-9.84,45.61,-400.00
T,T,-0.48,-0.40,0.09,-32.35,-191.89,-32.29,-9.84,45.61,-400.00
T,T,-0.46,-0.35,0.10,-37.72,-141.91,-36.62,-9.42,46.64,-400.00
T,T,-0.60,-0.35,-0.00,-75.38,-82.28,-26.06,-9.42,46.64,-400.00
T,T,-0.64,-0.32,-0.07,-86.67,-59.20,-3.30,-9.42,46.64,-400.00
T,T,-0.70,-0.24,0.03,-61.95,-6.96,-8.91,-9.42,46.64,-400.00
T,T,-0.63,-0.16,0.21,-39.61,58.84,-6.04,-10.25,46.63,-400.00
T,T,-0.65,-0.10,0.40,-31.25,85.21,-0.79,-10.25,46.63,-400.00
T,T,-0.75,-0.06,0.52,-14.34,75.44,-1.83,-10.25,46.63,-400.00
T,T,-0.88,0.04,0.56,4.46,21.42,-6.23,-10.03,46.31,-400.00
T,T,-0.92,0.06,0.25,-15.44,-39.43,-7.39,-10.03,46.31,-400.00
T,T,-0.95,0.04,0.05,-26.86,-74.52,0.37,-10.03,46.31,-400.00
T,T,-0.87,-0.03,-0.32,-14.04,-88.93,8.42,-9.64,46.68,-400.00
T,T,-0.71,-0.05,-0.25,28.08,-71.66,29.66,-9.64,46.68,-400.00
T,T,-0.60,-0.17,-0.54,-18.49,56.40,42.79,-9.64,46.68,-400.00
T,T,-0.59,-0.19,-0.47,-5.25,130.68,42.54,-9.64,46.68,-400.00
T,T,-0.56,-0.12,0.12,70.80,245.18,36.99,-9.27,46.22,-400.00
T,T,-0.74,-0.11,0.36,38.51,286.93,25.76,-9.27,46.22,-400.00
T,T,-0.80,0.08,0.55,45.72,174.87,13.31,-9.27,46.22,-400.00
T,T,-0.43,0.09,0.64,39.00,101.93,22.34,-9.41,45.04,-400.00
T,T,-0.05,-0.14,0.25,-32.10,66.28,78.43,-9.41,45.04,-400.00
T,T,0.10,-0.53,0.53,-23.56,174.56,150.70,-9.41,45.04,-400.00
T,T,-0.17,-0.94,0.73,2.93,281.68,122.07,-9.41,45.04,-400.00
T,T,-0.09,-1.23,1.44,7.14,292.54,67.26,-7.37,44.14,-400.00
T,T,0.17,-0.84,1.70,16.97,240.84,-29.54,-7.37,44.14,-400.00
T,T,0.21,-0.49,2.01,73.79,158.75,-51.27,-7.37,44.14,-400.00
T,T,0.21,-0.42,2.04,76.97,129.88,-46.51,-8.94,43.99,-400.00
T,T,0.26,-0.38,2.19,71.90,110.41,-35.16,-8.94,43.99,-400.00
T,T,0.17,-0.28,2.25,37.17,87.83,-36.07,-8.94,43.99,-400.00
T,T,0.20,-0.11,2.16,17.46,27.28,-39.31,-8.94,43.99,-400.00
T,T,0.24,-0.09,2.11,14.22,-5.49,-29.97,-10.49,43.81,-400.00
T,T,0.18,-0.21,1.93,-12.21,-58.59,-3.42,-10.49,43.81,-400.00
T,T,0.11,-0.37,1.58,-36.56,-92.59,0.67,-10.49,43.81,-400.00
T,T,0.14,-0.40,1.48,-21.73,-111.57,-10.13,-9.74,43.92,-400.00
T,T,0.05,-0.40,1.37,-22.03,-120.61,-15.93,-9.74,43.92,-400.00
T,T,-0.07,-0.30,0.97,-64.15,-141.05,-28.08,-9.74,43.92,-400.00
T,T,-0.15,-0.18,0.75,-43.88,-138.37,-31.13,-9.27,44.14,-400.00
T,T,-0.19,-0.14,0.72,-33.51,-122.74,-23.19,-9.27,44.14,-400.00
T,T,-0.20,-0.14,0.80,-21.42,-72.45,-16.85,-9.27,44.14,-400.00
T,T,-0.29,-0.23,0.93,-4.94,-48.46,-11.11,-9.27,44.14,-400.00
T,T,-0.26,-0.20,0.95,13.98,-79.35,-21.97,-9.19,44.85,-400.00
T,T,-0.29,-0.16,0.97,13.85,-86.91,-25.09,-9.19,44.85,-400.00
T,T,-0.32,-0.15,0.84,-13.31,-84.41,-23.13,-9.19,44.85,-400.00
T,T,-0.41,-0.20,0.76,-4.39,-77.39,-19.04,-10.10,45.68,-400.00
T,T,-0.44,-0.21,0.75,20.69,-76.48,-22.40,-10.10,45.68,-400.00
T,T,-0.40,-0.21,0.70,23.07,-78.19,-23.93,-10.10,45.68,-400.00
T,T,-0.40,-0.25,0.56,26.49,-80.75,-21.48,-10.10,45.68,-400.00
T,T,-0.49,-0.23,0.55,35.95,-57.86,-28.32,-9.70,45.52,-400.00
T,T,-0.51,-0.17,0.59,43.03,-36.99,-47.30,-9.70,45.52,-400.00
T,T,-0.54,-0.02,0.91,58.96,-13.61,-50.17,-9.70,45.52,-400.00
T,T,-0.52,0.00,0.91,12.88,-51.09,-34.67,-10.79,46.06,-400.00
T,T,-0.47,-0.15,0.70,-8.00,-96.62,-2.69,-10.79,46.06,-400.00
T,T,-0.51,-0.28,0.55,-5.43,-103.52,8.61,-10.79,46.06,-400.00
T,T,-0.50,-0.47,0.30,25.39,-102.60,6.53,-10.00,46.37,-400.00
T,T,-0.60,-0.45,0.35,50.78,-72.51,-18.80,-10.00,46.37,-400.00
L,T,-0.58,-0.37,0.39,34.24,-29.72,-47.00,-10.00,46.37,-400.00
L,T,-0.64,-0.23,0.48,28.69,-24.60,-49.44,-10.00,46.37,-400.00
L,T,-0.76,-0.15,0.43,24.54,-45.90,-45.47,-11.23,46.02,-400.00
L,T,-0.68,-0.09,0.49,53.41,-40.47,-37.35,-11.23,46.02,-400.00
L,T,-0.69,-0.09,0.44,51.82,-38.64,-22.83,-11.23,46.02,-400.00
L,T,-0.79,-0.06,0.46,43.27,-38.27,-20.45,-11.71,46.33,-400.00
L,T,-0.69,-0.07,0.43,11.60,-23.38,-12.45,-11.71,46.33,-400.00
L,T,-0.70,-0.25,0.48,8.42,-9.40,14.04,-11.71,46.33,-400.00
L,T,-0.78,-0.38,0.46,8.73,-9.22,19.59,-11.71,46.33,-400.00
L,T,-0.87,-0.35,0.55,21.85,-1.83,-10.44,-11.11,45.53,-400.00
L,T,-0.93,-0.07,0.62,23.38,7.57,-43.40,-11.11,45.53,-400.00
L,T,-0.95,0.04,0.68,-8.42,-11.23,-47.00,-11.11,45.53,-400.00
L,T,-0.84,0.11,0.47,-38.94,-27.53,-42.48,-12.32,46.08,-400.00
L,T,-0.86,0.09,0.12,-70.07,-61.58,-21.30,-12.32,46.08,-400.00
L,T,-0.91,0.03,-0.20,-62.87,-82.40,-0.92,-12.32,46.08,-400.00
L,T,-0.88,0.03,-0.29,-50.11,-109.25,7.81,-12.32,46.08,-400.00
L,T,-0.85,0.07,-0.32,-56.70,-93.57,8.12,-11.99,46.24,-400.00
L,T,-0.73,0.09,-0.58,-146.85,-28.08,6.65,-11.99,46.24,-400.00
L,T,-0.54,-0.02,-0.59,-187.68,73.85,21.00,-11.99,46.24,-400.00
L,T,-0.43,-0.11,-0.48,-162.90,152.28,37.35,-11.58,46.57,-400.00
L,T,-0.15,-0.18,0.30,-52.19,330.69,75.99,-11.58,46.57,-400.00
L,T,-0.24,-0.43,1.07,-33.75,434.81,85.39,-11.58,46.57,-400.00
L,T,-0.34,-0.52,1.38,-1.71,346.86,34.85,-9.94,46.88,-400.00
L,T,-0.48,-0.50,1.59,5.43,256.35,-2.81,-9.94,46.88,-400.00
L,T,-0.28,-0.27,1.28,66.22,87.22,-44.01,-9.94,46.88,-400.00
L,T,-0.20,-0.09,1.33,101.07,13.43,-29.05,-9.94,46.88,-400.00
L,T,-0.22,-0.09,1.09,54.44,6.35,0.98,-10.68,45.53,-400.00
L,T,-0.22,-0.22,0.69,20.63,31.56,14.34,-10.68,45.53,-400.00
L,T,-0.29,-0.30,0.84,50.35,81.48,18.62,-10.68,45.53,-400.00
L,T,-0.25,-0.21,1.32,21.48,120.42,0.24,-10.46,45.35,-400.00
L,T,-0.18,-0.16,1.43,-14.83,130.07,-3.54,-10.46,45.35,-400.00
L,T,0.03,-0.18,1.63,-32.59,109.31,10.25,-10.46,45.35,-400.00
L,T,0.07,-0.43,1.77,-5.13,65.06,29.66,-10.46,45.35,-400.00
L,T,0.04,-0.53,1.84,34.61,33.87,0.24,-10.75,45.83,-400.00
L,T,-0.04,-0.36,1.98,41.81,17.70,-29.91,-10.75,45.83,-400.00
L,T,-0.04,0.09,1.86,33.81,-35.77,-69.95,-10.75,45.83,-400.00
L,T,-0.08,0.21,1.63,21.85,-91.86,-57.98,-12.21,45.74,-400.00
L,T,-0.11,0.17,1.35,10.62,-133.91,-16.17,-12.21,45.74,-400.00
L,T,-0.19,-0.04,1.01,23.80,-139.77,0.24,-12.21,45.74,-400.00
L,T,-0.31,-0.22,0.88,14.28,-104.13,9.40,-11.62,45.74,-400.00
L,T,-0.38,-0.21,0.84,2.08,-49.99,-9.22,-11.62,45.74,-400.00
L,T,-0.39,-0.15,0.90,12.76,-39.31,-19.59,-11.62,45.74,-400.00
L,T,-0.35,-0.04,1.07,39.37,-47.30,-24.11,-11.62,45.74,-400.00
L,T,-0.42,-0.06,0.99,25.15,-74.16,-12.63,-11.96,45.40,-400.00
L,T,-0.45,-0.09,0.90,10.99,-96.98,-7.14,-11.96,45.40,-400.00
L,T,-0.47,-0.12,0.71,10.99,-98.51,-6.16,-11.96,45.40,-400.00
L,T,-0.50,-0.15,0.54,21.85,-96.19,-3.97,-11.58,46.07,-400.00
L,T,-0.52,-0.19,0.38,21.06,-99.00,-3.85,-11.58,46.07,-400.00
L,T,-0.54,-0.20,0.31,16.91,-72.02,-3.91,-11.58,46.07,-400.00
L,T,-0.59,-0.24,0.25,11.54,-51.03,-4.15,-11.58,46.07,-400.00
L,T,-0.63,-0.21,0.33,22.58,-8.30,-9.34,-11.27,45.70,-400.00
L,T,-0.65,-0.12,0.51,29.66,14.95,-12.63,-11.27,45.70,-400.00
L,T,-0.64,-0.08,0.60,23.32,15.69,-10.74,-11.27,45.70,-400.00
L,T,-0.63,-0.08,0.56,-2.32,3.05,0.92,-11.25,45.31,-400.00
L,T,-0.58,-0.21,0.59,-0.92,-5.00,19.17,-11.25,45.31,-400.00
L,T,-0.55,-0.32,0.53,-13.00,-4.39,31.98,-11.25,45.31,-400.00
L,T,-0.57,-0.45,0.49,-4.27,4.15,31.92,-11.25,45.31,-400.00
L,T,-0.64,-0.46,0.64,18.43,30.21,8.12,-10.66,46.03,-400.00
L,T,-0.61,-0.29,0.78,28.63,28.02,-19.29,-10.66,46.03,-400.00
L,T,-0.60,-0.19,0.81,27.89,7.57,-23.38,-10.66,46.03,-400.00
L,T,-0.61,-0.07,0.74,17.70,-3.97,-17.58,-11.68,45.89,-400.00
L,T,-0.63,-0.10,0.58,13.24,-21.00,0.12,-11.68,45.89,-400.00
L,T,-0.60,-0.21,0.56,13.73,-10.93,16.17,-11.68,45.89,-400.00
L,T,-0.61,-0.26,0.53,6.04,-0.06,19.96,-10.94,45.40,-400.00
L,T,-0.61,-0.32,0.57,3.97,21.91,17.03,-10.94,45.40,-400.00
L,T,-0.61,-0.29,0.68,8.73,36.19,6.35,-10.94,45.40,-400.00
L,T,-0.61,-0.25,0.72,13.55,36.50,0.18,-10.94,45.40,-400.00
L,T,-0.59,-0.21,0.81,16.36,35.16,0.73,-10.78,45.80,-400.00
L,T,-0.55,-0.21,0.90,16.17,28.38,6.53,-10.78,45.80,-400.00
L,T,-0.56,-0.23,0.88,-3.11,15.50,12.21,-10.78,45.80,-400.00
L,T,-0.56,-0.23,0.85,-9.28,6.16,12.63,-11.29,45.42,-400.00
L,T,-0.56,-0.23,0.79,-3.66,3.42,13.18,-11.29,45.42,-400.00
L,T,-0.55,-0.26,0.78,3.54,0.43,15.99,-11.29,45.42,-400.00
L,T,-0.55,-0.29,0.78,-6.71,5.37,19.53,-11.29,45.42,-400.00
L,T,-0.53,-0.31,0.77,-13.12,8.79,19.96,-10.10,45.21,-400.00
L,T,-0.49,-0.37,0.79,-11.66,11.23,19.78,-10.10,45.21,-400.00
L,T,-0.46,-0.45,0.85,-0.98,19.17,18.31,-10.10,45.21,-400.00
L,T,-0.46,-0.48,0.91,8.61,28.44,9.09,-10.08,45.65,-400.00
L,T,-0.48,-0.44,1.04,8.79,30.03,0.67,-10.08,45.65,-400.00
L,T,-0.49,-0.32,1.06,8.54,13.12,-13.85,-10.08,45.65,-400.00
L,T,-0.51,-0.21,0.95,5.92,-15.26,-16.54,-9.90,45.65,-400.00
